t,lat,lon,alt,vx,vy,vz,ax,ay,az,yaw,mode,ledr,ledg,ledb
10.0,35.69813635922601,51.268594879514815,1319.9992732349783,-6.898589290926696e-05,-2.104821433590557e-05,0.0,1.7052830501851115e-12,5.684282254961234e-13,0.0,193.9,70.0,0.0,255.0,0.0
10.05,35.69813277279439,51.26859421701646,1319.999273225665,-6.89858928240028e-05,-2.104821430748416e-05,0.0,8.526415250925679e-13,1.421082489964226e-12,0.0,193.82758928571428,70.0,0.0,255.0,0.0
10.100000000000001,35.698129186764845,51.26859355473023,1319.9992732172832,-6.89858928240028e-05,-2.104821419379732e-05,0.0,-5.684341886080801e-13,0.0,0.0,193.7551785714286,70.0,0.0,255.0,0.0
10.150000000000002,35.69812560113757,51.26859289265549,1319.9992732126266,-6.898589288084622e-05,-2.104821430748416e-05,0.0,0.0,-1.1368683772161603e-12,0.0,193.68276785714286,70.0,0.0,255.0,0.0
10.200000000000003,35.69812201591282,51.26859223079163,1319.999273210764,-6.89858928240028e-05,-2.104821430748416e-05,0.0,0.0,0.0,0.0,193.61035714285714,70.0,0.0,255.0,0.0
10.250000000000004,35.69811843109078,51.26859156913804,1319.9992732098326,-6.898589288084622e-05,-2.104821430748416e-05,0.0,-5.684341886080801e-13,0.0,0.0,193.53794642857142,70.0,0.0,255.0,0.0
10.300000000000004,35.69811484667168,51.268590907694076,1319.9992732116953,-6.898589288084622e-05,-2.104821430748416e-05,0.0,5.684341886080801e-13,1.1368683772161603e-12,0.0,193.46553571428572,70.0,0.0,255.0,0.0
10.350000000000005,35.69811126265573,51.26859024645912,1319.9992732154205,-6.89858928240028e-05,-2.104821419379732e-05,0.0,0.0,0.0,0.0,193.393125,70.0,0.0,255.0,0.0
10.400000000000006,35.69810767904314,51.26858958543255,1319.9992732228711,-6.898589288084622e-05,-2.104821430748416e-05,0.0,0.0,-1.1368683772161603e-12,0.0,193.32071428571427,70.0,0.0,255.0,0.0
10.450000000000006,35.698104095834125,51.268588924613724,1319.999273228459,-6.89858928240028e-05,-2.104821430748416e-05,0.0,5.684341886080801e-13,0.0,0.0,193.24830357142858,70.0,0.0,255.0,0.0
10.500000000000007,35.69810051302893,51.26858826400203,1319.9992732387036,-6.89858928240028e-05,-2.104821430748416e-05,0.0,-1.1368683772161603e-12,0.0,0.0,193.17589285714286,70.0,0.0,255.0,0.0
10.550000000000008,35.698096930627734,51.26858760359685,1319.9992732508108,-6.898589293768964e-05,-2.104821430748416e-05,0.0,-5.684341886080801e-13,1.1368683772161603e-12,0.0,193.10348214285713,70.0,0.0,255.0,0.0
10.600000000000009,35.698093348630756,51.26858694339754,1319.9992732647806,-6.898589288084622e-05,-2.104821419379732e-05,0.0,1.1368683772161603e-12,0.0,0.0,193.0310714285714,70.0,0.0,255.0,0.0
10.65000000000001,35.69808976703821,51.26858628340348,1319.9992732815444,-6.89858928240028e-05,-2.104821430748416e-05,0.0,5.684341886080801e-13,-1.1368683772161603e-12,0.0,192.9586607142857,70.0,0.0,255.0,0.0
10.70000000000001,35.69808618585031,51.26858562361405,1319.999273300171,-6.89858928240028e-05,-2.104821430748416e-05,0.0,0.0,1.1368683772161603e-12,0.0,192.88625,70.0,0.0,255.0,0.0
10.75000000000001,35.698082605067256,51.26858496402861,1319.9992733197287,-6.89858928240028e-05,-2.104821419379732e-05,0.0,-5.684341886080801e-13,0.0,0.0,192.81383928571427,70.0,0.0,255.0,0.0
10.800000000000011,35.69807902468929,51.268584304646566,1319.9992733430117,-6.898589288084622e-05,-2.104821430748416e-05,0.0,0.0,-2.2737367544323206e-12,0.0,192.74142857142857,70.0,0.0,255.0,0.0
10.850000000000012,35.69807544471658,51.26858364546725,1319.9992733672261,-6.89858928240028e-05,-2.1048214421170997e-05,0.0,0.0,0.0,0.0,192.66901785714285,70.0,0.0,255.0,0.0
10.900000000000013,35.69807186514936,51.268582986490046,1319.9992733951658,-6.898589288084622e-05,-2.104821430748416e-05,0.0,-1.1368683772161603e-12,2.2737367544323206e-12,0.0,192.59660714285712,70.0,0.0,255.0,0.0
10.950000000000014,35.69806828598783,51.26858232771434,1319.9992734212428,-6.898589293768964e-05,-2.104821419379732e-05,0.0,5.684341886080801e-13,0.0,0.0,192.5241964285714,70.0,0.0,255.0,0.0
11.000000000000014,35.69806470723218,51.268581669139486,1319.9992734538391,-6.89858928240028e-05,-2.104821430748416e-05,0.0,1.1368683772161603e-12,-1.1368683772161603e-12,0.0,192.4517857142857,70.0,0.0,255.0,0.0
11.050000000000015,35.698061128882664,51.268581010764855,1319.9992734864354,-6.89858928240028e-05,-2.104821430748416e-05,0.0,-5.684341886080801e-13,0.0,0.0,192.37937499999998,70.0,0.0,255.0,0.0
11.100000000000016,35.69805755093945,51.26858035258984,1319.9992735208943,-6.898589288084622e-05,-2.104821430748416e-05,0.0,0.0,0.0,0.0,192.30696428571426,70.0,0.0,255.0,0.0
11.150000000000016,35.69805397340275,51.268579694613784,1319.9992735562846,-6.89858928240028e-05,-2.104821430748416e-05,0.0,0.0,1.1368683772161603e-12,0.0,192.23455357142856,70.0,0.0,255.0,0.0
11.200000000000017,35.698050396272784,51.268579036836066,1319.9992735944688,-6.898589288084622e-05,-2.104821419379732e-05,0.0,-5.684341886080801e-13,0.0,0.0,192.16214285714284,70.0,0.0,255.0,0.0
11.250000000000018,35.69804681954974,51.268578379256056,1319.999273635447,-6.898589288084622e-05,-2.104821430748416e-05,0.0,5.684341886080801e-13,-1.1368683772161603e-12,0.0,192.08973214285712,70.0,0.0,255.0,0.0
11.300000000000018,35.69804324323382,51.26857772187313,1319.9992736782879,-6.89858928240028e-05,-2.104821430748416e-05,0.0,0.0,1.1368683772161603e-12,0.0,192.01732142857142,70.0,0.0,255.0,0.0
11.35000000000002,35.69803966732522,51.26857706468665,1319.9992737229913,-6.898589288084622e-05,-2.104821419379732e-05,0.0,0.0,0.0,0.0,191.9449107142857,70.0,0.0,255.0,0.0
11.40000000000002,35.69803609182417,51.268576407695996,1319.9992737704888,-6.89858928240028e-05,-2.104821430748416e-05,0.0,5.684341886080801e-13,-1.1368683772161603e-12,0.0,191.87249999999997,70.0,0.0,255.0,0.0
11.45000000000002,35.69803251673086,51.26857575090052,1319.9992738207802,-6.89858928240028e-05,-2.104821430748416e-05,0.0,-1.1368683772161603e-12,0.0,0.0,191.80008928571425,70.0,0.0,255.0,0.0
11.500000000000021,35.698028942045475,51.2685750942996,1319.999273872003,-6.898589293768964e-05,-2.104821430748416e-05,0.0,-5.684341886080801e-13,0.0,0.0,191.72767857142856,70.0,0.0,255.0,0.0
11.550000000000022,35.698025367768224,51.268574437892596,1319.9992739222944,-6.898589288084622e-05,-2.104821430748416e-05,0.0,1.1368683772161603e-12,1.1368683772161603e-12,0.0,191.65526785714283,70.0,0.0,255.0,0.0
11.600000000000023,35.69802179389935,51.268573781678874,1319.9992739753798,-6.89858928240028e-05,-2.104821419379732e-05,0.0,0.0,0.0,0.0,191.5828571428571,70.0,0.0,255.0,0.0
11.650000000000023,35.69801822043897,51.26857312565783,1319.999274034053,-6.898589288084622e-05,-2.104821430748416e-05,0.0,0.0,-2.2737367544323206e-12,0.0,191.5104464285714,70.0,0.0,255.0,0.0
11.700000000000024,35.69801464738733,51.2685724698288,1319.9992740936577,-6.89858928240028e-05,-2.1048214421170997e-05,0.0,5.684341886080801e-13,0.0,0.0,191.4380357142857,70.0,0.0,255.0,0.0
11.750000000000025,35.698011074744635,51.26857181419114,1319.9992741532624,-6.89858928240028e-05,-2.104821430748416e-05,0.0,0.0,2.2737367544323206e-12,0.0,191.36562499999997,70.0,0.0,255.0,0.0
11.800000000000026,35.69800750251106,51.26857115874426,1319.9992742165923,-6.89858928240028e-05,-2.104821419379732e-05,0.0,-5.684341886080801e-13,0.0,0.0,191.29321428571424,70.0,0.0,255.0,0.0
11.850000000000026,35.698003930686816,51.26857050348749,1319.999274281785,-6.898589288084622e-05,-2.104821430748416e-05,0.0,-1.1368683772161603e-12,-1.1368683772161603e-12,0.0,191.22080357142855,70.0,0.0,255.0,0.0
11.900000000000027,35.6980003592721,51.268569848420206,1319.9992743469775,-6.898589293768964e-05,-2.104821430748416e-05,0.0,5.684341886080801e-13,1.1368683772161603e-12,0.0,191.14839285714282,70.0,0.0,255.0,0.0
11.950000000000028,35.6979967882671,51.268569193541786,1319.999274414964,-6.89858928240028e-05,-2.104821419379732e-05,0.0,1.1368683772161603e-12,0.0,0.0,191.0759821428571,70.0,0.0,255.0,0.0
12.000000000000028,35.69799321767201,51.268568538851575,1319.999274483882,-6.89858928240028e-05,-2.104821430748416e-05,0.0,-5.684341886080801e-13,-1.1368683772161603e-12,0.0,191.0035714285714,70.0,0.0,255.0,0.0
12.05000000000003,35.69798964748701,51.26856788434894,1319.999274556525,-6.898589288084622e-05,-2.104821430748416e-05,0.0,0.0,0.0,0.0,190.93116071428568,70.0,0.0,255.0,0.0
12.10000000000003,35.69798607771231,51.26856723003327,1319.9992746291682,-6.89858928240028e-05,-2.104821430748416e-05,0.0,0.0,0.0,0.0,190.85874999999996,70.0,0.0,255.0,0.0
12.15000000000003,35.69798250834812,51.26856657590389,1319.9992747055367,-6.898589288084622e-05,-2.104821430748416e-05,0.0,-5.684341886080801e-13,1.1368683772161603e-12,0.0,190.78633928571423,70.0,0.0,255.0,0.0
12.200000000000031,35.697978939394595,51.268565921960196,1319.9992747837678,-6.898589288084622e-05,-2.104821419379732e-05,0.0,5.684341886080801e-13,0.0,0.0,190.71392857142854,70.0,0.0,255.0,0.0
12.250000000000032,35.69797537085194,51.268565268201534,1319.9992748638615,-6.89858928240028e-05,-2.104821430748416e-05,0.0,0.0,-1.1368683772161603e-12,0.0,190.64151785714282,70.0,0.0,255.0,0.0
12.300000000000033,35.69797180272035,51.26856461462728,1319.9992749467492,-6.898589288084622e-05,-2.104821430748416e-05,0.0,0.0,0.0,0.0,190.5691071428571,70.0,0.0,255.0,0.0
12.350000000000033,35.69796823500001,51.2685639612368,1319.9992750287056,-6.89858928240028e-05,-2.104821430748416e-05,0.0,5.684341886080801e-13,0.0,0.0,190.4966964285714,70.0,0.0,255.0,0.0
12.400000000000034,35.697964667691124,51.26856330802943,1319.9992751153186,-6.89858928240028e-05,-2.104821430748416e-05,0.0,-1.1368683772161603e-12,1.1368683772161603e-12,0.0,190.42428571428567,70.0,0.0,255.0,0.0
12.450000000000035,35.69796110079387,51.26856265500455,1319.9992752019316,-6.898589293768964e-05,-2.104821419379732e-05,0.0,-5.684341886080801e-13,0.0,0.0,190.35187499999995,70.0,0.0,255.0,0.0
12.500000000000036,35.69795753430843,51.26856200216153,1319.999275289476,-6.898589288084622e-05,-2.104821430748416e-05,0.0,1.1368683772161603e-12,-1.1368683772161603e-12,0.0,190.27946428571423,70.0,0.0,255.0,0.0
12.550000000000036,35.69795396823499,51.26856134949971,1319.9992753816769,-6.89858928240028e-05,-2.104821430748416e-05,0.0,0.0,1.1368683772161603e-12,0.0,190.20705357142853,70.0,0.0,255.0,0.0
12.600000000000037,35.69795040257375,51.26856069701848,1319.999275474809,-6.898589288084622e-05,-2.104821419379732e-05,0.0,0.0,0.0,0.0,190.1346428571428,70.0,0.0,255.0,0.0
12.650000000000038,35.69794683732488,51.26856004471718,1319.9992755688727,-6.89858928240028e-05,-2.104821430748416e-05,0.0,5.684341886080801e-13,-2.2737367544323206e-12,0.0,190.06223214285708,70.0,0.0,255.0,0.0
12.700000000000038,35.69794327248859,51.26855939259517,1319.9992756638676,-6.89858928240028e-05,-2.1048214421170997e-05,0.0,0.0,0.0,0.0,189.9898214285714,70.0,0.0,255.0,0.0
12.750000000000039,35.69793970806503,51.26855874065183,1319.999275763519,-6.89858928240028e-05,-2.104821430748416e-05,0.0,-5.684341886080801e-13,2.2737367544323206e-12,0.0,189.91741071428567,70.0,0.0,255.0,0.0
12.80000000000004,35.69793614405442,51.2685580888865,1319.9992758622393,-6.898589288084622e-05,-2.104821419379732e-05,0.0,-1.1368683772161603e-12,1.1368683772161603e-12,0.0,189.84499999999994,70.0,0.0,255.0,0.0
12.85000000000004,35.69793258045691,51.26855743729855,1319.9992759646848,-6.898589293768964e-05,-2.104821419379732e-05,0.0,5.684341886080801e-13,-1.1368683772161603e-12,0.0,189.77258928571422,70.0,0.0,255.0,0.0
12.900000000000041,35.697929017272685,51.26855678588735,1319.999276068993,-6.89858928240028e-05,-2.104821430748416e-05,0.0,1.1368683772161603e-12,-2.2737367544323206e-12,0.0,189.70017857142852,70.0,0.0,255.0,0.0
12.950000000000042,35.69792545450197,51.26855613465222,1319.9992761742324,-6.89858928240028e-05,-2.1048214421170997e-05,0.0,-5.684341886080801e-13,0.0,0.0,189.6277678571428,70.0,0.0,255.0,0.0
13.000000000000043,35.6979218921449,51.26855548359256,1319.9992762822658,-6.898589288084622e-05,-2.104821430748416e-05,0.0,0.0,2.2737367544323206e-12,0.0,189.55535714285708,70.0,0.0,255.0,0.0
13.050000000000043,35.697918330201674,51.26855483270772,1319.9992763893679,-6.89858928240028e-05,-2.104821419379732e-05,0.0,0.0,0.0,0.0,189.48294642857138,70.0,0.0,255.0,0.0
13.100000000000044,35.69791476867248,51.26855418199705,1319.9992765001953,-6.898589288084622e-05,-2.104821430748416e-05,0.0,-1.1368683772161603e-12,-1.1368683772161603e-12,0.0,189.41053571428566,70.0,0.0,255.0,0.0
13.150000000000045,35.69791120755746,51.268553531459915,1319.9992766128853,-6.898589293768964e-05,-2.104821430748416e-05,0.0,5.684341886080801e-13,1.1368683772161603e-12,0.0,189.33812499999993,70.0,0.0,255.0,0.0
13.200000000000045,35.69790764685685,51.26855288109568,1319.999276727438,-6.89858928240028e-05,-2.104821419379732e-05,0.0,1.1368683772161603e-12,0.0,0.0,189.26571428571424,70.0,0.0,255.0,0.0
13.250000000000046,35.69790408657079,51.26855223090368,1319.9992768438533,-6.89858928240028e-05,-2.104821430748416e-05,0.0,0.0,-1.1368683772161603e-12,0.0,189.19330357142852,70.0,0.0,255.0,0.0
13.300000000000047,35.697900526699435,51.268551580883276,1319.9992769630626,-6.89858928240028e-05,-2.104821430748416e-05,0.0,0.0,0.0,0.0,189.1208928571428,70.0,0.0,255.0,0.0
13.350000000000048,35.697896967243025,51.26855093103386,1319.9992770822719,-6.89858928240028e-05,-2.104821430748416e-05,0.0,-1.1368683772161603e-12,0.0,0.0,189.04848214285707,70.0,0.0,255.0,0.0
13.400000000000048,35.697893408201686,51.26855028135474,1319.9992772024125,-6.898589293768964e-05,-2.104821430748416e-05,0.0,-5.684341886080801e-13,1.1368683772161603e-12,0.0,188.97607142857137,70.0,0.0,255.0,0.0
13.450000000000049,35.69788984957561,51.26854963184532,1319.9992773262784,-6.898589288084622e-05,-2.104821419379732e-05,0.0,1.1368683772161603e-12,0.0,0.0,188.90366071428565,70.0,0.0,255.0,0.0
13.50000000000005,35.69788629136498,51.26854898250492,1319.9992774510756,-6.89858928240028e-05,-2.104821430748416e-05,0.0,0.0,-2.2737367544323206e-12,0.0,188.83124999999993,70.0,0.0,255.0,0.0
13.55000000000005,35.697882733569955,51.26854833333291,1319.9992775768042,-6.898589288084622e-05,-2.1048214421170997e-05,0.0,0.0,0.0,0.0,188.75883928571423,70.0,0.0,255.0,0.0
13.600000000000051,35.69787917619071,51.26854768432865,1319.999277706258,-6.89858928240028e-05,-2.104821430748416e-05,0.0,5.684341886080801e-13,2.2737367544323206e-12,0.0,188.6864285714285,70.0,0.0,255.0,0.0
13.650000000000052,35.69787561922742,51.26854703549149,1319.9992778366432,-6.89858928240028e-05,-2.104821419379732e-05,0.0,0.0,1.1368683772161603e-12,0.0,188.61401785714278,70.0,0.0,255.0,0.0
13.700000000000053,35.69787206268027,51.26854638682078,1319.9992779679596,-6.89858928240028e-05,-2.104821419379732e-05,0.0,-5.684341886080801e-13,-1.1368683772161603e-12,0.0,188.54160714285706,70.0,0.0,255.0,0.0
13.750000000000053,35.69786850654942,51.26854573831589,1319.9992781002074,-6.898589288084622e-05,-2.104821430748416e-05,0.0,-1.1368683772161603e-12,-1.1368683772161603e-12,0.0,188.46919642857137,70.0,0.0,255.0,0.0
13.800000000000054,35.697864950835026,51.268545089976165,1319.9992782371119,-6.898589293768964e-05,-2.104821430748416e-05,0.0,5.684341886080801e-13,1.1368683772161603e-12,0.0,188.39678571428564,70.0,0.0,255.0,0.0
13.850000000000055,35.69786139553729,51.268544441800955,1319.9992783740163,-6.89858928240028e-05,-2.104821419379732e-05,0.0,1.1368683772161603e-12,0.0,0.0,188.32437499999992,70.0,0.0,255.0,0.0
13.900000000000055,35.69785784065636,51.268543793789625,1319.999278511852,-6.89858928240028e-05,-2.104821430748416e-05,0.0,-5.684341886080801e-13,-2.2737367544323206e-12,0.0,188.25196428571422,70.0,0.0,255.0,0.0
13.950000000000056,35.69785428619241,51.268543145941535,1319.999278650619,-6.898589288084622e-05,-2.1048214421170997e-05,0.0,0.0,0.0,0.0,188.1795535714285,70.0,0.0,255.0,0.0
14.000000000000057,35.69785073214558,51.26854249825601,1319.9992787940428,-6.89858928240028e-05,-2.104821430748416e-05,0.0,0.0,2.2737367544323206e-12,0.0,188.10714285714278,70.0,0.0,255.0,0.0
14.050000000000058,35.69784717851609,51.26854185073243,1319.9992789365351,-6.898589288084622e-05,-2.104821419379732e-05,0.0,-1.1368683772161603e-12,0.0,0.0,188.03473214285705,70.0,0.0,255.0,0.0
14.100000000000058,35.69784362530409,51.26854120337014,1319.9992790827528,-6.898589293768964e-05,-2.104821430748416e-05,0.0,5.684341886080801e-13,-1.1368683772161603e-12,0.0,187.96232142857136,70.0,0.0,255.0,0.0
14.150000000000059,35.6978400725097,51.26854055616849,1319.9992792289704,-6.89858928240028e-05,-2.104821430748416e-05,0.0,1.1368683772161603e-12,0.0,0.0,187.88991071428563,70.0,0.0,255.0,0.0
14.20000000000006,35.697836520133166,51.268539909126844,1319.9992793770507,-6.89858928240028e-05,-2.104821430748416e-05,0.0,0.0,0.0,0.0,187.8174999999999,70.0,0.0,255.0,0.0
14.25000000000006,35.69783296817457,51.268539262244545,1319.999279527925,-6.89858928240028e-05,-2.104821430748416e-05,0.0,0.0,1.1368683772161603e-12,0.0,187.74508928571422,70.0,0.0,255.0,0.0
14.300000000000061,35.69782941663414,51.26853861552094,1319.9992796797305,-6.89858928240028e-05,-2.104821419379732e-05,0.0,-1.1368683772161603e-12,0.0,0.0,187.6726785714285,70.0,0.0,255.0,0.0
14.350000000000062,35.69782586551201,51.26853796895539,1319.9992798324674,-6.898589293768964e-05,-2.104821430748416e-05,0.0,-5.684341886080801e-13,-1.1368683772161603e-12,0.0,187.60026785714277,70.0,0.0,255.0,0.0
14.400000000000063,35.69782231480833,51.26853732254725,1319.9992799879983,-6.898589288084622e-05,-2.104821430748416e-05,0.0,1.1368683772161603e-12,1.1368683772161603e-12,0.0,187.52785714285704,70.0,0.0,255.0,0.0
14.450000000000063,35.697818764523305,51.26853667629586,1319.9992801425979,-6.89858928240028e-05,-2.104821419379732e-05,0.0,0.0,0.0,0.0,187.45544642857135,70.0,0.0,255.0,0.0
14.500000000000064,35.69781521465705,51.26853603020059,1319.9992803027853,-6.898589288084622e-05,-2.104821430748416e-05,0.0,0.0,-1.1368683772161603e-12,0.0,187.38303571428563,70.0,0.0,255.0,0.0
14.550000000000065,35.69781166520974,51.268535384260765,1319.9992804629728,-6.89858928240028e-05,-2.104821430748416e-05,0.0,5.684341886080801e-13,0.0,0.0,187.3106249999999,70.0,0.0,255.0,0.0
14.600000000000065,35.69780811618157,51.26853473847576,1319.999280625023,-6.89858928240028e-05,-2.104821430748416e-05,0.0,-1.1368683772161603e-12,0.0,0.0,187.2382142857142,70.0,0.0,255.0,0.0
14.650000000000066,35.69780456757263,51.2685340928449,1319.999280787073,-6.898589293768964e-05,-2.104821430748416e-05,0.0,-5.684341886080801e-13,1.1368683772161603e-12,0.0,187.16580357142848,70.0,0.0,255.0,0.0
14.700000000000067,35.69780101938315,51.26853344736755,1319.9992809519172,-6.898589288084622e-05,-2.104821419379732e-05,0.0,1.1368683772161603e-12,0.0,0.0,187.09339285714276,70.0,0.0,255.0,0.0
14.750000000000068,35.69779747161324,51.268532802043076,1319.9992811176926,-6.89858928240028e-05,-2.104821430748416e-05,0.0,5.684341886080801e-13,-2.2737367544323206e-12,0.0,187.02098214285704,70.0,0.0,255.0,0.0
14.800000000000068,35.69779392426308,51.2685321568708,1319.9992812843993,-6.89858928240028e-05,-2.1048214421170997e-05,0.0,0.0,0.0,0.0,186.94857142857134,70.0,0.0,255.0,0.0
14.850000000000069,35.69779037733282,51.26853151185009,1319.9992814548314,-6.89858928240028e-05,-2.104821430748416e-05,0.0,-5.684341886080801e-13,2.2737367544323206e-12,0.0,186.87616071428562,70.0,0.0,255.0,0.0
14.90000000000007,35.69778683082262,51.26853086698029,1319.9992816252634,-6.898589288084622e-05,-2.104821419379732e-05,0.0,0.0,0.0,0.0,186.8037499999999,70.0,0.0,255.0,0.0
14.95000000000007,35.697783284732616,51.26853022226074,1319.999281797558,-6.89858928240028e-05,-2.104821430748416e-05,0.0,0.0,-1.1368683772161603e-12,0.0,186.7313392857142,70.0,0.0,255.0,0.0
15.000000000000071,35.697779739063,51.2685295776908,1319.9992819726467,-6.898589288084622e-05,-2.104821430748416e-05,0.0,-1.1368683772161603e-12,1.1368683772161603e-12,0.0,186.65892857142848,70.0,0.0,255.0,0.0
15.050000000000072,35.69777619381389,51.26852893326982,1319.9992821458727,-6.898589293768964e-05,-2.104821419379732e-05,0.0,5.684341886080801e-13,0.0,0.0,186.58651785714275,70.0,0.0,255.0,0.0
15.100000000000072,35.697772648985456,51.26852828899714,1319.9992823265493,-6.89858928240028e-05,-2.104821430748416e-05,0.0,1.1368683772161603e-12,-1.1368683772161603e-12,0.0,186.51410714285703,70.0,0.0,255.0,0.0
15.150000000000073,35.69776910457785,51.26852764487211,1319.9992825025693,-6.89858928240028e-05,-2.104821430748416e-05,0.0,0.0,0.0,0.0,186.44169642857133,70.0,0.0,255.0,0.0
15.200000000000074,35.69776556059122,51.26852700089408,1319.9992826813832,-6.89858928240028e-05,-2.104821430748416e-05,0.0,0.0,0.0,0.0,186.3692857142856,70.0,0.0,255.0,0.0
15.250000000000075,35.6977620170257,51.26852635706239,1319.9992828648537,-6.89858928240028e-05,-2.104821430748416e-05,0.0,-1.1368683772161603e-12,1.1368683772161603e-12,0.0,186.2968749999999,70.0,0.0,255.0,0.0
15.300000000000075,35.69775847388147,51.26852571337639,1319.999283047393,-6.898589293768964e-05,-2.104821419379732e-05,0.0,-5.684341886080801e-13,0.0,0.0,186.2244642857142,70.0,0.0,255.0,0.0
15.350000000000076,35.697754931158684,51.26852506983545,1319.9992832336575,-6.898589288084622e-05,-2.104821430748416e-05,0.0,1.1368683772161603e-12,-1.1368683772161603e-12,0.0,186.15205357142847,70.0,0.0,255.0,0.0
15.400000000000077,35.697751388857476,51.26852442643889,1319.9992834189907,-6.89858928240028e-05,-2.104821430748416e-05,0.0,0.0,0.0,0.0,186.07964285714274,70.0,0.0,255.0,0.0
15.450000000000077,35.697747846978,51.26852378318607,1319.9992836061865,-6.898589288084622e-05,-2.104821430748416e-05,0.0,0.0,0.0,0.0,186.00723214285705,70.0,0.0,255.0,0.0
15.500000000000078,35.69774430552038,51.268523140076326,1319.9992837943137,-6.89858928240028e-05,-2.104821430748416e-05,0.0,5.684341886080801e-13,1.1368683772161603e-12,0.0,185.93482142857133,70.0,0.0,255.0,0.0
15.550000000000079,35.69774076448479,51.26852249710902,1319.9992839843035,-6.89858928240028e-05,-2.104821419379732e-05,0.0,-1.1368683772161603e-12,0.0,0.0,185.8624107142856,70.0,0.0,255.0,0.0
15.60000000000008,35.69773722387136,51.26852185428347,1319.9992841780186,-6.898589293768964e-05,-2.104821430748416e-05,0.0,-5.684341886080801e-13,-1.1368683772161603e-12,0.0,185.78999999999988,70.0,0.0,255.0,0.0
15.65000000000008,35.697733683680255,51.26852121159905,1319.9992843708023,-6.898589288084622e-05,-2.104821430748416e-05,0.0,1.1368683772161603e-12,1.1368683772161603e-12,0.0,185.71758928571418,70.0,0.0,255.0,0.0
15.700000000000081,35.697730143911606,51.26852056905509,1319.9992845673114,-6.89858928240028e-05,-2.104821419379732e-05,0.0,5.684341886080801e-13,0.0,0.0,185.64517857142846,70.0,0.0,255.0,0.0
15.750000000000082,35.69772660456556,51.26851992665095,1319.9992847619578,-6.89858928240028e-05,-2.104821430748416e-05,0.0,0.0,-2.2737367544323206e-12,0.0,185.57276785714274,70.0,0.0,255.0,0.0
15.800000000000082,35.69772306564228,51.26851928438596,1319.9992849603295,-6.89858928240028e-05,-2.1048214421170997e-05,0.0,-5.684341886080801e-13,0.0,0.0,185.50035714285704,70.0,0.0,255.0,0.0
15.850000000000083,35.697719527141864,51.268518642259465,1319.9992851596326,-6.898589288084622e-05,-2.104821430748416e-05,0.0,0.0,2.2737367544323206e-12,0.0,185.42794642857132,70.0,0.0,255.0,0.0
15.900000000000084,35.6977159890645,51.26851800027083,1319.999285359867,-6.89858928240028e-05,-2.104821419379732e-05,0.0,0.0,0.0,0.0,185.3555357142856,70.0,0.0,255.0,0.0
15.950000000000085,35.69771245141029,51.26851735841938,1319.9992855610326,-6.898589288084622e-05,-2.104821430748416e-05,0.0,-1.1368683772161603e-12,-1.1368683772161603e-12,0.0,185.28312499999987,70.0,0.0,255.0,0.0
16.000000000000085,35.69770891417942,51.26851671670445,1319.9992857659236,-6.898589293768964e-05,-2.104821430748416e-05,0.0,5.684341886080801e-13,0.0,0.0,185.21071428571418,70.0,0.0,255.0,0.0
16.050000000000086,35.697705377371996,51.26851607512542,1319.9992859708145,-6.89858928240028e-05,-2.104821430748416e-05,0.0,1.1368683772161603e-12,0.0,0.0,185.13830357142845,70.0,0.0,255.0,0.0
16.100000000000087,35.697701840988174,51.26851543368159,1319.9992861775681,-6.89858928240028e-05,-2.104821430748416e-05,0.0,0.0,1.1368683772161603e-12,0.0,185.06589285714273,70.0,0.0,255.0,0.0
16.150000000000087,35.69769830502809,51.26851479237233,1319.9992863843217,-6.89858928240028e-05,-2.104821419379732e-05,0.0,0.0,0.0,0.0,184.99348214285703,70.0,0.0,255.0,0.0
16.200000000000088,35.69769476949187,51.268514151197,1319.999286592938,-6.89858928240028e-05,-2.104821430748416e-05,0.0,-1.1368683772161603e-12,-1.1368683772161603e-12,0.0,184.9210714285713,70.0,0.0,255.0,0.0
16.25000000000009,35.697691234379676,51.268513510154904,1319.9992868052796,-6.898589293768964e-05,-2.104821430748416e-05,0.0,-5.684341886080801e-13,1.1368683772161603e-12,0.0,184.8486607142856,70.0,0.0,255.0,0.0
16.30000000000009,35.69768769969163,51.2685128692454,1319.9992870166898,-6.898589288084622e-05,-2.104821419379732e-05,0.0,1.1368683772161603e-12,0.0,0.0,184.77624999999986,70.0,0.0,255.0,0.0
16.35000000000009,35.69768416542786,51.26851222846785,1319.9992872299626,-6.89858928240028e-05,-2.104821430748416e-05,0.0,0.0,-1.1368683772161603e-12,0.0,184.70383928571417,70.0,0.0,255.0,0.0
16.40000000000009,35.69768063158851,51.26851158782157,1319.9992874460295,-6.898589288084622e-05,-2.104821430748416e-05,0.0,0.0,0.0,0.0,184.63142857142844,70.0,0.0,255.0,0.0
16.45000000000009,35.69767709817372,51.268510947305906,1319.9992876593024,-6.89858928240028e-05,-2.104821430748416e-05,0.0,5.684341886080801e-13,0.0,0.0,184.55901785714272,70.0,0.0,255.0,0.0
16.500000000000092,35.69767356518363,51.26851030692021,1319.9992878772318,-6.89858928240028e-05,-2.104821430748416e-05,0.0,-1.1368683772161603e-12,1.1368683772161603e-12,0.0,184.48660714285703,70.0,0.0,255.0,0.0
16.550000000000093,35.69767003261836,51.26850966666382,1319.9992880951613,-6.898589293768964e-05,-2.104821419379732e-05,0.0,-5.684341886080801e-13,0.0,0.0,184.4141964285713,70.0,0.0,255.0,0.0
16.600000000000094,35.69766650047802,51.26850902653609,1319.9992883177474,-6.898589288084622e-05,-2.104821430748416e-05,0.0,1.1368683772161603e-12,-2.2737367544323206e-12,0.0,184.34178571428558,70.0,0.0,255.0,0.0
16.650000000000095,35.69766296876281,51.26850838653634,1319.9992885375395,-6.89858928240028e-05,-2.1048214421170997e-05,0.0,5.684341886080801e-13,0.0,0.0,184.26937499999985,70.0,0.0,255.0,0.0
16.700000000000095,35.6976594374728,51.26850774666391,1319.999288761057,-6.89858928240028e-05,-2.104821430748416e-05,0.0,0.0,2.2737367544323206e-12,0.0,184.19696428571416,70.0,0.0,255.0,0.0
16.750000000000096,35.697655906608155,51.26850710691817,1319.999288986437,-6.89858928240028e-05,-2.104821419379732e-05,0.0,-5.684341886080801e-13,0.0,0.0,184.12455357142844,70.0,0.0,255.0,0.0
16.800000000000097,35.69765237616899,51.26850646729844,1319.9992892099544,-6.898589288084622e-05,-2.104821430748416e-05,0.0,0.0,-1.1368683772161603e-12,0.0,184.0521428571427,70.0,0.0,255.0,0.0
16.850000000000097,35.697648846155424,51.268505827804056,1319.9992894371971,-6.89858928240028e-05,-2.104821430748416e-05,0.0,0.0,1.1368683772161603e-12,0.0,183.97973214285702,70.0,0.0,255.0,0.0
16.900000000000098,35.697645316567616,51.268505188434375,1319.9992896663025,-6.898589288084622e-05,-2.104821419379732e-05,0.0,-1.1368683772161603e-12,0.0,0.0,183.9073214285713,70.0,0.0,255.0,0.0
16.9500000000001,35.697641787405665,51.26850454918873,1319.9992898935452,-6.898589293768964e-05,-2.104821430748416e-05,0.0,5.684341886080801e-13,-1.1368683772161603e-12,0.0,183.83491071428557,70.0,0.0,255.0,0.0
17.0000000000001,35.69763825866971,51.26850391006644,1319.9992901235819,-6.89858928240028e-05,-2.104821430748416e-05,0.0,1.1368683772161603e-12,0.0,0.0,183.76249999999987,70.0,0.0,255.0,0.0
17.0500000000001,35.69763473035988,51.26850327106688,1319.9992903564125,-6.89858928240028e-05,-2.104821430748416e-05,0.0,-5.684341886080801e-13,0.0,0.0,183.69008928571415,70.0,0.0,255.0,0.0
17.1000000000001,35.697631202476316,51.26850263218937,1319.9992905901745,-6.898589288084622e-05,-2.104821430748416e-05,0.0,0.0,1.1368683772161603e-12,0.0,183.61767857142843,70.0,0.0,255.0,0.0
17.1500000000001,35.69762767501911,51.26850199343326,1319.9992908239365,-6.89858928240028e-05,-2.104821419379732e-05,0.0,0.0,0.0,0.0,183.5452678571427,70.0,0.0,255.0,0.0
17.200000000000102,35.697624147988414,51.26850135479788,1319.999291059561,-6.898589288084622e-05,-2.104821430748416e-05,0.0,-5.684341886080801e-13,-1.1368683772161603e-12,0.0,183.472857142857,70.0,0.0,255.0,0.0
17.250000000000103,35.69762062138434,51.26850071628256,1319.9992912970483,-6.898589288084622e-05,-2.104821430748416e-05,0.0,5.684341886080801e-13,0.0,0.0,183.40044642857129,70.0,0.0,255.0,0.0
17.300000000000104,35.697617095207015,51.26850007788667,1319.999291535467,-6.89858928240028e-05,-2.104821430748416e-05,0.0,0.0,0.0,0.0,183.32803571428556,70.0,0.0,255.0,0.0
17.350000000000104,35.69761356945657,51.268499439609506,1319.9992917738855,-6.898589288084622e-05,-2.104821430748416e-05,0.0,0.0,1.1368683772161603e-12,0.0,183.25562499999984,70.0,0.0,255.0,0.0
17.400000000000105,35.69761004413309,51.26849880145045,1319.999292015098,-6.89858928240028e-05,-2.104821419379732e-05,0.0,5.684341886080801e-13,0.0,0.0,183.18321428571414,70.0,0.0,255.0,0.0
17.450000000000106,35.69760651923675,51.26849816340882,1319.9992922581732,-6.89858928240028e-05,-2.104821430748416e-05,0.0,-1.1368683772161603e-12,-1.1368683772161603e-12,0.0,183.11080357142842,70.0,0.0,255.0,0.0
17.500000000000107,35.697602994767635,51.268497525483944,1319.999292500317,-6.898589293768964e-05,-2.104821430748416e-05,0.0,-5.684341886080801e-13,1.1368683772161603e-12,0.0,183.0383928571427,70.0,0.0,255.0,0.0
17.550000000000107,35.69759947072587,51.26849688767518,1319.9992927443236,-6.898589288084622e-05,-2.104821419379732e-05,0.0,1.1368683772161603e-12,0.0,0.0,182.965982142857,70.0,0.0,255.0,0.0
17.600000000000108,35.6975959471116,51.26849624998185,1319.9992929901928,-6.89858928240028e-05,-2.104821430748416e-05,0.0,5.684341886080801e-13,-2.2737367544323206e-12,0.0,182.89357142857128,70.0,0.0,255.0,0.0
17.65000000000011,35.6975924239249,51.2684956124033,1319.9992932379246,-6.89858928240028e-05,-2.1048214421170997e-05,0.0,0.0,0.0,0.0,182.82116071428555,70.0,0.0,255.0,0.0
17.70000000000011,35.69758890116593,51.26849497493886,1319.9992934865877,-6.89858928240028e-05,-2.104821430748416e-05,0.0,-5.684341886080801e-13,2.2737367544323206e-12,0.0,182.74874999999986,70.0,0.0,255.0,0.0
17.75000000000011,35.69758537883478,51.268494337587875,1319.9992937343195,-6.898589288084622e-05,-2.104821419379732e-05,0.0,0.0,1.1368683772161603e-12,0.0,182.67633928571414,70.0,0.0,255.0,0.0
17.80000000000011,35.69758185693158,51.26849370034968,1319.9992939848453,-6.89858928240028e-05,-2.104821419379732e-05,0.0,0.0,-1.1368683772161603e-12,0.0,182.6039285714284,70.0,0.0,255.0,0.0
17.85000000000011,35.69757833545643,51.268493063223616,1319.9992942363024,-6.898589288084622e-05,-2.104821430748416e-05,0.0,-1.1368683772161603e-12,-2.2737367544323206e-12,0.0,182.5315178571427,70.0,0.0,255.0,0.0
17.900000000000112,35.69757481440946,51.26849242620901,1319.9992944905534,-6.898589293768964e-05,-2.1048214421170997e-05,0.0,5.684341886080801e-13,0.0,0.0,182.459107142857,70.0,0.0,255.0,0.0
17.950000000000113,35.69757129379079,51.2684917893052,1319.9992947438732,-6.89858928240028e-05,-2.104821430748416e-05,0.0,1.1368683772161603e-12,2.2737367544323206e-12,0.0,182.38669642857127,70.0,0.0,255.0,0.0
18.000000000000114,35.69756777360052,51.26849115251153,1319.9992949981242,-6.89858928240028e-05,-2.104821419379732e-05,0.0,-5.684341886080801e-13,0.0,0.0,182.31428571428555,70.0,0.0,255.0,0.0
18.050000000000114,35.69756425383877,51.26849051582733,1319.999295257032,-6.898589288084622e-05,-2.104821430748416e-05,0.0,0.0,-1.1368683772161603e-12,0.0,182.24187499999985,70.0,0.0,255.0,0.0
18.100000000000115,35.69756073450564,51.268489879251945,1319.999295511283,-6.89858928240028e-05,-2.104821430748416e-05,0.0,0.0,1.1368683772161603e-12,0.0,182.16946428571413,70.0,0.0,255.0,0.0
18.150000000000116,35.69755721560127,51.2684892427847,1319.999295771122,-6.898589288084622e-05,-2.104821419379732e-05,0.0,-5.684341886080801e-13,0.0,0.0,182.0970535714284,70.0,0.0,255.0,0.0
18.200000000000117,35.69755369712575,51.26848860642494,1319.9992960300297,-6.898589288084622e-05,-2.104821430748416e-05,0.0,5.684341886080801e-13,-1.1368683772161603e-12,0.0,182.02464285714268,70.0,0.0,255.0,0.0
18.250000000000117,35.697550179079194,51.26848797017198,1319.9992962908,-6.89858928240028e-05,-2.104821430748416e-05,0.0,0.0,0.0,0.0,181.95223214285699,70.0,0.0,255.0,0.0
18.300000000000118,35.6975466614617,51.26848733402518,1319.9992965525016,-6.898589288084622e-05,-2.104821430748416e-05,0.0,0.0,0.0,0.0,181.87982142857126,70.0,0.0,255.0,0.0
18.35000000000012,35.6975431442734,51.26848669798387,1319.999296816066,-6.89858928240028e-05,-2.104821430748416e-05,0.0,5.684341886080801e-13,1.1368683772161603e-12,0.0,181.80741071428554,70.0,0.0,255.0,0.0
18.40000000000012,35.6975396275144,51.26848606204737,1319.9992970805615,-6.89858928240028e-05,-2.104821419379732e-05,0.0,-1.1368683772161603e-12,0.0,0.0,181.73499999999984,70.0,0.0,255.0,0.0
18.45000000000012,35.69753611118479,51.26848542621504,1319.9992973450571,-6.898589293768964e-05,-2.104821430748416e-05,0.0,-5.684341886080801e-13,-2.2737367544323206e-12,0.0,181.66258928571412,70.0,0.0,255.0,0.0
18.50000000000012,35.697532595284684,51.268484790486184,1319.9992976123467,-6.898589288084622e-05,-2.1048214421170997e-05,0.0,1.1368683772161603e-12,0.0,0.0,181.5901785714284,70.0,0.0,255.0,0.0
18.55000000000012,35.69752907981419,51.268484154860154,1319.9992978805676,-6.89858928240028e-05,-2.104821430748416e-05,0.0,0.0,2.2737367544323206e-12,0.0,181.51776785714267,70.0,0.0,255.0,0.0
18.600000000000122,35.69752556477342,51.2684835193363,1319.9992981478572,-6.898589288084622e-05,-2.104821419379732e-05,0.0,0.0,1.1368683772161603e-12,0.0,181.44535714285698,70.0,0.0,255.0,0.0
18.650000000000123,35.69752205016247,51.26848288391392,1319.9992984170094,-6.89858928240028e-05,-2.104821419379732e-05,0.0,5.684341886080801e-13,-1.1368683772161603e-12,0.0,181.37294642857125,70.0,0.0,255.0,0.0
18.700000000000124,35.69751853598145,51.26848224859236,1319.9992986880243,-6.89858928240028e-05,-2.104821430748416e-05,0.0,0.0,-1.1368683772161603e-12,0.0,181.30053571428553,70.0,0.0,255.0,0.0
18.750000000000124,35.69751502223047,51.268481613370994,1319.9992989590392,-6.89858928240028e-05,-2.104821430748416e-05,0.0,-5.684341886080801e-13,1.1368683772161603e-12,0.0,181.22812499999984,70.0,0.0,255.0,0.0
18.800000000000125,35.69751150890962,51.268480978249094,1319.999299232848,-6.898589288084622e-05,-2.104821419379732e-05,0.0,-1.1368683772161603e-12,0.0,0.0,181.1557142857141,70.0,0.0,255.0,0.0
18.850000000000126,35.697507996019006,51.26848034322603,1319.9992995075881,-6.898589293768964e-05,-2.104821430748416e-05,0.0,5.684341886080801e-13,-2.2737367544323206e-12,0.0,181.0833035714284,70.0,0.0,255.0,0.0
18.900000000000126,35.69750448355871,51.26847970830113,1319.999299781397,-6.89858928240028e-05,-2.1048214421170997e-05,0.0,1.1368683772161603e-12,0.0,0.0,181.01089285714266,70.0,0.0,255.0,0.0
18.950000000000127,35.697500971528896,51.268479073473706,1319.9993000570685,-6.89858928240028e-05,-2.104821430748416e-05,0.0,-5.684341886080801e-13,2.2737367544323206e-12,0.0,180.93848214285697,70.0,0.0,255.0,0.0
19.000000000000128,35.697497459929586,51.26847843874313,1319.9993003346026,-6.898589288084622e-05,-2.104821419379732e-05,0.0,0.0,0.0,0.0,180.86607142857125,70.0,0.0,255.0,0.0
19.05000000000013,35.697493948760936,51.268477804108706,1319.999300613068,-6.89858928240028e-05,-2.104821430748416e-05,0.0,0.0,-1.1368683772161603e-12,0.0,180.79366071428552,70.0,0.0,255.0,0.0
19.10000000000013,35.697490438023,51.26847716956977,1319.9993008915335,-6.898589288084622e-05,-2.104821430748416e-05,0.0,-5.684341886080801e-13,0.0,0.0,180.72124999999983,70.0,0.0,255.0,0.0
19.15000000000013,35.69748692771593,51.26847653512567,1319.999301172793,-6.898589288084622e-05,-2.104821430748416e-05,0.0,5.684341886080801e-13,0.0,0.0,180.6488392857141,70.0,0.0,255.0,0.0
19.20000000000013,35.697483417839784,51.26847590077572,1319.9993014540523,-6.89858928240028e-05,-2.104821430748416e-05,0.0,0.0,1.1368683772161603e-12,0.0,180.57642857142838,70.0,0.0,255.0,0.0
19.25000000000013,35.69747990839465,51.26847526651926,1319.999301736243,-6.898589288084622e-05,-2.104821419379732e-05,0.0,0.0,0.0,0.0,180.50401785714268,70.0,0.0,255.0,0.0
19.300000000000132,35.69747639938067,51.268474632355634,1319.9993020193651,-6.89858928240028e-05,-2.104821430748416e-05,0.0,5.684341886080801e-13,-1.1368683772161603e-12,0.0,180.43160714285696,70.0,0.0,255.0,0.0
19.350000000000133,35.69747289079789,51.26847399828414,1319.9993023024872,-6.89858928240028e-05,-2.104821430748416e-05,0.0,-1.1368683772161603e-12,1.1368683772161603e-12,0.0,180.35919642857124,70.0,0.0,255.0,0.0
19.400000000000134,35.69746938264644,51.26847336430414,1319.9993025893345,-6.898589293768964e-05,-2.104821419379732e-05,0.0,-5.684341886080801e-13,0.0,0.0,180.28678571428551,70.0,0.0,255.0,0.0
19.450000000000134,35.697465874926394,51.26847273041497,1319.9993028715253,-6.898589288084622e-05,-2.104821430748416e-05,0.0,1.1368683772161603e-12,-1.1368683772161603e-12,0.0,180.21437499999982,70.0,0.0,255.0,0.0
19.500000000000135,35.697462367637854,51.26847209661595,1319.9993031583726,-6.89858928240028e-05,-2.104821430748416e-05,0.0,0.0,0.0,0.0,180.1419642857141,70.0,0.0,255.0,0.0
19.550000000000136,35.697458860780905,51.268471462906405,1319.999303448014,-6.898589288084622e-05,-2.104821430748416e-05,0.0,0.0,0.0,0.0,180.06955357142837,70.0,0.0,255.0,0.0
19.600000000000136,35.69745535435564,51.26847082928566,1319.999303739518,-6.89858928240028e-05,-2.104821430748416e-05,0.0,5.684341886080801e-13,1.1368683772161603e-12,0.0,179.99714285714265,70.0,0.0,255.0,0.0
19.650000000000137,35.69745184836218,51.26847019575306,1319.9993040272966,-6.89858928240028e-05,-2.104821419379732e-05,0.0,0.0,0.0,0.0,179.92473214285695,70.0,0.0,255.0,0.0
19.700000000000138,35.69744834280056,51.26846956230795,1319.999304319732,-6.89858928240028e-05,-2.104821430748416e-05,0.0,-5.684341886080801e-13,-2.2737367544323206e-12,0.0,179.85232142857123,70.0,0.0,255.0,0.0
19.75000000000014,35.69744483767092,51.26846892894962,1319.9993046093732,-6.898589288084622e-05,-2.1048214421170997e-05,0.0,-1.1368683772161603e-12,0.0,0.0,179.7799107142855,70.0,0.0,255.0,0.0
19.80000000000014,35.69744133297333,51.268468295677444,1319.9993049018085,-6.898589293768964e-05,-2.104821430748416e-05,0.0,5.684341886080801e-13,2.2737367544323206e-12,0.0,179.7074999999998,70.0,0.0,255.0,0.0
19.85000000000014,35.697437828707855,51.26846766249073,1319.9993051961064,-6.89858928240028e-05,-2.104821419379732e-05,0.0,1.1368683772161603e-12,0.0,0.0,179.6350892857141,70.0,0.0,255.0,0.0
19.90000000000014,35.69743432487462,51.268467029388816,1319.999305492267,-6.89858928240028e-05,-2.104821430748416e-05,0.0,-5.684341886080801e-13,-1.1368683772161603e-12,0.0,179.56267857142836,70.0,0.0,255.0,0.0
19.95000000000014,35.6974308214737,51.268466396371004,1319.9993057874963,-6.898589288084622e-05,-2.104821430748416e-05,0.0,0.0,1.1368683772161603e-12,0.0,179.49026785714267,70.0,0.0,255.0,0.0
20.000000000000142,35.69742731850517,51.26846576343668,1319.9993060827255,-6.89858928240028e-05,-2.104821419379732e-05,0.0,0.0,0.0,0.0,179.41785714285695,70.0,0.0,255.0,0.0
20.050000000000143,35.697423815969145,51.268465130585135,1319.999306378886,-6.898589288084622e-05,-2.104821430748416e-05,0.0,-1.1368683772161603e-12,-1.1368683772161603e-12,0.0,179.34544642857122,70.0,0.0,255.0,0.0
20.100000000000144,35.69742031386568,51.26846449781571,1319.999306678772,-6.898589293768964e-05,-2.104821430748416e-05,0.0,5.684341886080801e-13,0.0,0.0,179.2730357142855,70.0,0.0,255.0,0.0
20.150000000000144,35.69741681219487,51.26846386512772,1319.9993069767952,-6.89858928240028e-05,-2.104821430748416e-05,0.0,1.1368683772161603e-12,0.0,0.0,179.2006249999998,70.0,0.0,255.0,0.0
20.200000000000145,35.69741331095679,51.2684632325205,1319.9993072776124,-6.89858928240028e-05,-2.104821430748416e-05,0.0,0.0,1.1368683772161603e-12,0.0,179.12821428571408,70.0,0.0,255.0,0.0
20.250000000000146,35.69740981015153,51.26846259999339,1319.9993075784296,-6.89858928240028e-05,-2.104821419379732e-05,0.0,0.0,0.0,0.0,179.05580357142836,70.0,0.0,255.0,0.0
20.300000000000146,35.69740630977918,51.26846196754572,1319.999307880178,-6.89858928240028e-05,-2.104821430748416e-05,0.0,-1.1368683772161603e-12,-1.1368683772161603e-12,0.0,178.98339285714266,70.0,0.0,255.0,0.0
20.350000000000147,35.69740280983981,51.26846133517681,1319.9993081819266,-6.898589293768964e-05,-2.104821430748416e-05,0.0,-5.684341886080801e-13,0.0,0.0,178.91098214285694,70.0,0.0,255.0,0.0
20.400000000000148,35.697399310333516,51.268460702886,1319.9993084855378,-6.898589288084622e-05,-2.104821430748416e-05,0.0,1.1368683772161603e-12,0.0,0.0,178.8385714285712,70.0,0.0,255.0,0.0
20.45000000000015,35.69739581126037,51.2684600706726,1319.9993087882176,-6.89858928240028e-05,-2.104821430748416e-05,0.0,0.0,1.1368683772161603e-12,0.0,178.7661607142855,70.0,0.0,255.0,0.0
20.50000000000015,35.69739231262043,51.268459438535956,1319.9993090964854,-6.898589288084622e-05,-2.104821419379732e-05,0.0,0.0,0.0,0.0,178.6937499999998,70.0,0.0,255.0,0.0
20.55000000000015,35.697388814413806,51.268458806475394,1319.9993094019592,-6.89858928240028e-05,-2.104821430748416e-05,0.0,5.684341886080801e-13,-1.1368683772161603e-12,0.0,178.62133928571407,70.0,0.0,255.0,0.0
20.60000000000015,35.697385316640556,51.26845817449024,1319.999309707433,-6.89858928240028e-05,-2.104821430748416e-05,0.0,0.0,1.1368683772161603e-12,0.0,178.54892857142835,70.0,0.0,255.0,0.0
20.65000000000015,35.69738181930078,51.26845754257982,1319.9993100147694,-6.89858928240028e-05,-2.104821419379732e-05,0.0,-5.684341886080801e-13,0.0,0.0,178.47651785714265,70.0,0.0,255.0,0.0
20.700000000000152,35.69737832239453,51.26845691074348,1319.9993103239685,-6.898589288084622e-05,-2.104821430748416e-05,0.0,-1.1368683772161603e-12,-2.2737367544323206e-12,0.0,178.40410714285693,70.0,0.0,255.0,0.0
20.750000000000153,35.697374825921905,51.26845627898051,1319.999310631305,-6.898589293768964e-05,-2.1048214421170997e-05,0.0,5.684341886080801e-13,0.0,0.0,178.3316964285712,70.0,0.0,255.0,0.0
20.800000000000153,35.69737132988294,51.26845564729027,1319.999310943298,-6.89858928240028e-05,-2.104821430748416e-05,0.0,1.1368683772161603e-12,2.2737367544323206e-12,0.0,178.25928571428548,70.0,0.0,255.0,0.0
20.850000000000154,35.69736783427777,51.268455015672075,1319.9993112524971,-6.89858928240028e-05,-2.104821419379732e-05,0.0,-5.684341886080801e-13,0.0,0.0,178.1868749999998,70.0,0.0,255.0,0.0
20.900000000000155,35.69736433910641,51.26845438412528,1319.9993115644902,-6.898589288084622e-05,-2.104821430748416e-05,0.0,0.0,-1.1368683772161603e-12,0.0,178.11446428571406,70.0,0.0,255.0,0.0
20.950000000000156,35.69736084436897,51.268453752649144,1319.9993118764833,-6.89858928240028e-05,-2.104821430748416e-05,0.0,0.0,0.0,0.0,178.04205357142834,70.0,0.0,255.0,0.0
21.000000000000156,35.69735735006551,51.26845312124309,1319.9993121912703,-6.898589288084622e-05,-2.104821430748416e-05,0.0,-1.1368683772161603e-12,0.0,0.0,177.96964285714265,70.0,0.0,255.0,0.0
21.050000000000157,35.697353856196116,51.268452489906366,1319.999312505126,-6.898589293768964e-05,-2.104821430748416e-05,0.0,5.684341886080801e-13,1.1368683772161603e-12,0.0,177.89723214285692,70.0,0.0,255.0,0.0
21.100000000000158,35.697350362760844,51.26845185863833,1319.9993128180504,-6.89858928240028e-05,-2.104821419379732e-05,0.0,1.1368683772161603e-12,0.0,0.0,177.8248214285712,70.0,0.0,255.0,0.0
21.15000000000016,35.69734686975976,51.26845122743832,1319.9993131337687,-6.89858928240028e-05,-2.104821430748416e-05,0.0,0.0,-1.1368683772161603e-12,0.0,177.75241071428547,70.0,0.0,255.0,0.0
21.20000000000016,35.697343377192944,51.268450596305655,1319.9993134504184,-6.89858928240028e-05,-2.104821430748416e-05,0.0,0.0,1.1368683772161603e-12,0.0,177.67999999999978,70.0,0.0,255.0,0.0
21.25000000000016,35.697339885060465,51.268449965239654,1319.999313767068,-6.89858928240028e-05,-2.104821419379732e-05,0.0,-1.1368683772161603e-12,0.0,0.0,177.60758928571406,70.0,0.0,255.0,0.0
21.30000000000016,35.69733639336238,51.26844933423964,1319.999314084649,-6.898589293768964e-05,-2.104821430748416e-05,0.0,-5.684341886080801e-13,-1.1368683772161603e-12,0.0,177.53517857142833,70.0,0.0,255.0,0.0
21.35000000000016,35.69733290209877,51.268448703304955,1319.99931440223,-6.898589288084622e-05,-2.104821430748416e-05,0.0,1.1368683772161603e-12,0.0,0.0,177.46276785714264,70.0,0.0,255.0,0.0
21.400000000000162,35.697329411269706,51.268448072434936,1319.9993147216737,-6.89858928240028e-05,-2.104821430748416e-05,0.0,0.0,0.0,0.0,177.3903571428569,70.0,0.0,255.0,0.0
21.450000000000163,35.697325920875244,51.26844744162888,1319.99931504298,-6.898589288084622e-05,-2.104821430748416e-05,0.0,0.0,1.1368683772161603e-12,0.0,177.3179464285712,70.0,0.0,255.0,0.0
21.500000000000163,35.69732243091545,51.268446810886125,1319.9993153624237,-6.89858928240028e-05,-2.104821419379732e-05,0.0,5.684341886080801e-13,0.0,0.0,177.2455357142855,70.0,0.0,255.0,0.0
21.550000000000164,35.697318941390385,51.268446180206006,1319.99931568373,-6.89858928240028e-05,-2.104821430748416e-05,0.0,0.0,-2.2737367544323206e-12,0.0,177.17312499999977,70.0,0.0,255.0,0.0
21.600000000000165,35.697315452300124,51.26844554958784,1319.9993160050362,-6.89858928240028e-05,-2.1048214421170997e-05,0.0,-5.684341886080801e-13,0.0,0.0,177.10071428571405,70.0,0.0,255.0,0.0
21.650000000000166,35.697311963644744,51.26844491903096,1319.9993163291365,-6.898589288084622e-05,-2.104821430748416e-05,0.0,-1.1368683772161603e-12,2.2737367544323206e-12,0.0,177.02830357142832,70.0,0.0,255.0,0.0
21.700000000000166,35.697308475424265,51.26844428853468,1319.9993166523054,-6.898589293768964e-05,-2.104821419379732e-05,0.0,5.684341886080801e-13,0.0,0.0,176.95589285714263,70.0,0.0,255.0,0.0
21.750000000000167,35.69730498763877,51.26844365809834,1319.9993169764057,-6.89858928240028e-05,-2.104821430748416e-05,0.0,1.1368683772161603e-12,-1.1368683772161603e-12,0.0,176.8834821428569,70.0,0.0,255.0,0.0
21.800000000000168,35.69730150028835,51.268443027721254,1319.999317300506,-6.89858928240028e-05,-2.104821430748416e-05,0.0,-5.684341886080801e-13,1.1368683772161603e-12,0.0,176.81107142857118,70.0,0.0,255.0,0.0
21.85000000000017,35.697298013373015,51.26844239740277,1319.9993176255375,-6.898589288084622e-05,-2.104821419379732e-05,0.0,0.0,1.1368683772161603e-12,0.0,176.73866071428546,70.0,0.0,255.0,0.0
21.90000000000017,35.69729452689286,51.26844176714219,1319.9993179515004,-6.89858928240028e-05,-2.104821419379732e-05,0.0,0.0,-1.1368683772161603e-12,0.0,176.66624999999976,70.0,0.0,255.0,0.0
21.95000000000017,35.697291040847944,51.26844113693886,1319.9993182783946,-6.898589288084622e-05,-2.104821430748416e-05,0.0,-1.1368683772161603e-12,-2.2737367544323206e-12,0.0,176.59383928571404,70.0,0.0,255.0,0.0
22.00000000000017,35.697287555238304,51.268440506792075,1319.9993186062202,-6.898589293768964e-05,-2.1048214421170997e-05,0.0,5.684341886080801e-13,0.0,0.0,176.52142857142832,70.0,0.0,255.0,0.0
22.05000000000017,35.697284070064015,51.26843987670119,1319.999318932183,-6.89858928240028e-05,-2.104821430748416e-05,0.0,1.1368683772161603e-12,2.2737367544323206e-12,0.0,176.44901785714262,70.0,0.0,255.0,0.0
22.100000000000172,35.697280585325124,51.268439246665515,1319.9993192600086,-6.89858928240028e-05,-2.104821419379732e-05,0.0,0.0,0.0,0.0,176.3766071428569,70.0,0.0,255.0,0.0
22.150000000000173,35.697277101021704,51.26843861668438,1319.9993195906281,-6.89858928240028e-05,-2.104821430748416e-05,0.0,0.0,-1.1368683772161603e-12,0.0,176.30419642857117,70.0,0.0,255.0,0.0
22.200000000000173,35.69727361715378,51.26843798675711,1319.9993199203163,-6.89858928240028e-05,-2.104821430748416e-05,0.0,-1.1368683772161603e-12,0.0,0.0,176.23178571428548,70.0,0.0,255.0,0.0
22.250000000000174,35.69727013372144,51.26843735688304,1319.9993202518672,-6.898589293768964e-05,-2.104821430748416e-05,0.0,-5.684341886080801e-13,0.0,0.0,176.15937499999976,70.0,0.0,255.0,0.0
22.300000000000175,35.69726665072473,51.26843672706148,1319.9993205824867,-6.898589288084622e-05,-2.104821430748416e-05,0.0,1.1368683772161603e-12,1.1368683772161603e-12,0.0,176.08696428571403,70.0,0.0,255.0,0.0
22.350000000000176,35.6972631681637,51.268436097291755,1319.9993209149688,-6.89858928240028e-05,-2.104821419379732e-05,0.0,0.0,0.0,0.0,176.0145535714283,70.0,0.0,255.0,0.0
22.400000000000176,35.6972596860384,51.268435467573205,1319.999321247451,-6.898589288084622e-05,-2.104821430748416e-05,0.0,0.0,-1.1368683772161603e-12,0.0,175.9421428571426,70.0,0.0,255.0,0.0
22.450000000000177,35.697256204348875,51.26843483790513,1319.9993215780705,-6.89858928240028e-05,-2.104821430748416e-05,0.0,5.684341886080801e-13,1.1368683772161603e-12,0.0,175.8697321428569,70.0,0.0,255.0,0.0
22.500000000000178,35.6972527230952,51.26843420828689,1319.9993219133466,-6.89858928240028e-05,-2.104821419379732e-05,0.0,-1.1368683772161603e-12,0.0,0.0,175.79732142857117,70.0,0.0,255.0,0.0
22.55000000000018,35.697249242277394,51.26843357871779,1319.9993222467601,-6.898589293768964e-05,-2.104821430748416e-05,0.0,-5.684341886080801e-13,-2.2737367544323206e-12,0.0,175.72491071428547,70.0,0.0,255.0,0.0
22.60000000000018,35.69724576189556,51.268432949197134,1319.999322581105,-6.898589288084622e-05,-2.1048214421170997e-05,0.0,1.1368683772161603e-12,0.0,0.0,175.65249999999975,70.0,0.0,255.0,0.0
22.65000000000018,35.69724228194969,51.26843231972428,1319.9993229145184,-6.89858928240028e-05,-2.104821430748416e-05,0.0,5.684341886080801e-13,2.2737367544323206e-12,0.0,175.58008928571402,70.0,0.0,255.0,0.0
22.70000000000018,35.69723880243986,51.268431690298556,1319.9993232525885,-6.89858928240028e-05,-2.104821419379732e-05,0.0,0.0,1.1368683772161603e-12,0.0,175.5076785714283,70.0,0.0,255.0,0.0
22.75000000000018,35.697235323366115,51.268431060919255,1319.9993235869333,-6.89858928240028e-05,-2.104821419379732e-05,0.0,-5.684341886080801e-13,-1.1368683772161603e-12,0.0,175.4352678571426,70.0,0.0,255.0,0.0
22.800000000000182,35.697231844728506,51.26843043158572,1319.9993239231408,-6.898589288084622e-05,-2.104821430748416e-05,0.0,0.0,-2.2737367544323206e-12,0.0,175.36285714285688,70.0,0.0,255.0,0.0
22.850000000000183,35.69722836652707,51.26842980229727,1319.9993242621422,-6.89858928240028e-05,-2.1048214421170997e-05,0.0,0.0,0.0,0.0,175.29044642857116,70.0,0.0,255.0,0.0
22.900000000000183,35.69722488876188,51.26842917305323,1319.9993245983496,-6.898589288084622e-05,-2.104821430748416e-05,0.0,-1.1368683772161603e-12,2.2737367544323206e-12,0.0,175.21803571428546,70.0,0.0,255.0,0.0
22.950000000000184,35.69722141143294,51.26842854385293,1319.999324937351,-6.898589293768964e-05,-2.104821419379732e-05,0.0,5.684341886080801e-13,0.0,0.0,175.14562499999974,70.0,0.0,255.0,0.0
23.000000000000185,35.69721793454032,51.268427914695685,1319.9993252763525,-6.89858928240028e-05,-2.104821430748416e-05,0.0,1.1368683772161603e-12,-1.1368683772161603e-12,0.0,175.07321428571402,70.0,0.0,255.0,0.0
23.050000000000185,35.69721445808407,51.26842728558081,1319.9993256162852,-6.89858928240028e-05,-2.104821430748416e-05,0.0,0.0,1.1368683772161603e-12,0.0,175.00080357142832,70.0,0.0,255.0,0.0
23.100000000000186,35.69721098206421,51.268426656507664,1319.9993259552866,-6.89858928240028e-05,-2.104821419379732e-05,0.0,0.0,0.0,0.0,174.9283928571426,70.0,0.0,255.0,0.0
23.150000000000187,35.69720750648081,51.26842602747554,1319.9993262961507,-6.89858928240028e-05,-2.104821430748416e-05,0.0,-1.1368683772161603e-12,-1.1368683772161603e-12,0.0,174.85598214285687,70.0,0.0,255.0,0.0
23.200000000000188,35.697204031333875,51.26842539848377,1319.999326637946,-6.898589293768964e-05,-2.104821430748416e-05,0.0,-5.684341886080801e-13,0.0,0.0,174.78357142857115,70.0,0.0,255.0,0.0
23.25000000000019,35.69720055662349,51.268424769531684,1319.9993269778788,-6.898589288084622e-05,-2.104821430748416e-05,0.0,1.1368683772161603e-12,0.0,0.0,174.71116071428546,70.0,0.0,255.0,0.0
23.30000000000019,35.69719708234968,51.26842414061859,1319.9993273196742,-6.89858928240028e-05,-2.104821430748416e-05,0.0,0.0,1.1368683772161603e-12,0.0,174.63874999999973,70.0,0.0,255.0,0.0
23.35000000000019,35.69719360851248,51.26842351174383,1319.999327662401,-6.898589288084622e-05,-2.104821419379732e-05,0.0,0.0,0.0,0.0,174.566339285714,70.0,0.0,255.0,0.0
23.40000000000019,35.6971901351119,51.26842288290672,1319.9993280051276,-6.89858928240028e-05,-2.104821430748416e-05,0.0,5.684341886080801e-13,-2.2737367544323206e-12,0.0,174.49392857142828,70.0,0.0,255.0,0.0
23.45000000000019,35.69718666214804,51.26842225410658,1319.9993283478543,-6.89858928240028e-05,-2.1048214421170997e-05,0.0,-1.1368683772161603e-12,0.0,0.0,174.4215178571426,70.0,0.0,255.0,0.0
23.500000000000192,35.69718318962088,51.26842162534273,1319.9993286924437,-6.898589293768964e-05,-2.104821430748416e-05,0.0,-5.684341886080801e-13,2.2737367544323206e-12,0.0,174.34910714285687,70.0,0.0,255.0,0.0
23.550000000000193,35.6971797175305,51.26842099661451,1319.9993290361017,-6.898589288084622e-05,-2.104821419379732e-05,0.0,1.1368683772161603e-12,1.1368683772161603e-12,0.0,174.27669642857114,70.0,0.0,255.0,0.0
23.600000000000193,35.697176245876925,51.268420367921216,1319.9993293797597,-6.89858928240028e-05,-2.104821419379732e-05,0.0,5.684341886080801e-13,-1.1368683772161603e-12,0.0,174.20428571428545,70.0,0.0,255.0,0.0
23.650000000000194,35.697172774660174,51.26841973926221,1319.9993297252804,-6.89858928240028e-05,-2.104821430748416e-05,0.0,0.0,-1.1368683772161603e-12,0.0,174.13187499999972,70.0,0.0,255.0,0.0
23.700000000000195,35.697169303880294,51.26841911063678,1319.999330070801,-6.89858928240028e-05,-2.104821430748416e-05,0.0,-5.684341886080801e-13,1.1368683772161603e-12,0.0,174.059464285714,70.0,0.0,255.0,0.0
23.750000000000195,35.697165833537305,51.26841848204426,1319.9993304153904,-6.898589288084622e-05,-2.104821419379732e-05,0.0,0.0,0.0,0.0,173.9870535714283,70.0,0.0,255.0,0.0
23.800000000000196,35.697162363631264,51.26841785348398,1319.9993307627738,-6.89858928240028e-05,-2.104821430748416e-05,0.0,0.0,-2.2737367544323206e-12,0.0,173.91464285714258,70.0,0.0,255.0,0.0
23.850000000000197,35.6971588941622,51.268417224955265,1319.9993311092257,-6.898589288084622e-05,-2.1048214421170997e-05,0.0,-1.1368683772161603e-12,0.0,0.0,173.84223214285686,70.0,0.0,255.0,0.0
23.900000000000198,35.69715542513013,51.268416596457406,1319.9993314575404,-6.898589293768964e-05,-2.104821430748416e-05,0.0,5.684341886080801e-13,2.2737367544323206e-12,0.0,173.76982142857113,70.0,0.0,255.0,0.0
23.9500000000002,35.6971519565351,51.26841596798978,1319.9993318039924,-6.89858928240028e-05,-2.104821419379732e-05,0.0,1.1368683772161603e-12,0.0,0.0,173.69741071428544,70.0,0.0,255.0,0.0
24.0000000000002,35.697148488377145,51.26841533955167,1319.9993321513757,-6.89858928240028e-05,-2.104821430748416e-05,0.0,-5.684341886080801e-13,-1.1368683772161603e-12,0.0,173.62499999999972,70.0,0.0,255.0,0.0
24.0500000000002,35.69714502065627,51.268414711142405,1319.9993324996904,-6.898589288084622e-05,-2.104821430748416e-05,0.0,0.0,0.0,0.0,173.552589285714,70.0,0.0,255.0,0.0
24.1000000000002,35.69714155337251,51.268414082761325,1319.9993328470737,-6.89858928240028e-05,-2.104821430748416e-05,0.0,0.0,0.0,0.0,173.48017857142827,70.0,0.0,255.0,0.0
24.1500000000002,35.69713808652592,51.26841345440773,1319.9993331963196,-6.898589288084622e-05,-2.104821430748416e-05,0.0,-5.684341886080801e-13,1.1368683772161603e-12,0.0,173.40776785714257,70.0,0.0,255.0,0.0
24.200000000000202,35.697134620116515,51.268412826080954,1319.999333546497,-6.898589288084622e-05,-2.104821419379732e-05,0.0,5.684341886080801e-13,0.0,0.0,173.33535714285685,70.0,0.0,255.0,0.0
24.250000000000203,35.697131154144316,51.26841219778032,1319.9993338976055,-6.89858928240028e-05,-2.104821430748416e-05,0.0,0.0,-1.1368683772161603e-12,0.0,173.26294642857113,70.0,0.0,255.0,0.0
24.300000000000203,35.69712768860934,51.268411569505155,1319.9993342477828,-6.898589288084622e-05,-2.104821430748416e-05,0.0,0.0,1.1368683772161603e-12,0.0,173.19053571428543,70.0,0.0,255.0,0.0
24.350000000000204,35.69712422351164,51.26841094125476,1319.9993345960975,-6.89858928240028e-05,-2.104821419379732e-05,0.0,5.684341886080801e-13,0.0,0.0,173.1181249999997,70.0,0.0,255.0,0.0
24.400000000000205,35.69712075885123,51.26841031302849,1319.999334947206,-6.89858928240028e-05,-2.104821430748416e-05,0.0,-1.1368683772161603e-12,-1.1368683772161603e-12,0.0,173.04571428571398,70.0,0.0,255.0,0.0
24.450000000000205,35.697117294628114,51.26840968482564,1319.9993352973834,-6.898589293768964e-05,-2.104821430748416e-05,0.0,-5.684341886080801e-13,0.0,0.0,172.9733035714283,70.0,0.0,255.0,0.0
24.500000000000206,35.69711383084234,51.26840905664555,1319.999335648492,-6.898589288084622e-05,-2.104821430748416e-05,0.0,1.1368683772161603e-12,0.0,0.0,172.90089285714257,70.0,0.0,255.0,0.0
24.550000000000207,35.69711036749393,51.26840842848753,1319.999336000532,-6.89858928240028e-05,-2.104821430748416e-05,0.0,5.684341886080801e-13,1.1368683772161603e-12,0.0,172.82848214285684,70.0,0.0,255.0,0.0
24.600000000000207,35.697106904582895,51.26840780035092,1319.9993363535032,-6.89858928240028e-05,-2.104821419379732e-05,0.0,0.0,0.0,0.0,172.75607142857115,70.0,0.0,255.0,0.0
24.650000000000208,35.697103442109274,51.26840717223502,1319.9993367064744,-6.89858928240028e-05,-2.104821430748416e-05,0.0,-5.684341886080801e-13,-2.2737367544323206e-12,0.0,172.68366071428542,70.0,0.0,255.0,0.0
24.70000000000021,35.69709998007306,51.26840654413917,1319.999337057583,-6.898589288084622e-05,-2.1048214421170997e-05,0.0,0.0,0.0,0.0,172.6112499999997,70.0,0.0,255.0,0.0
24.75000000000021,35.69709651847428,51.26840591606268,1319.9993374105543,-6.89858928240028e-05,-2.104821430748416e-05,0.0,0.0,2.2737367544323206e-12,0.0,172.53883928571398,70.0,0.0,255.0,0.0
24.80000000000021,35.69709305731299,51.26840528800488,1319.9993377635255,-6.898589288084622e-05,-2.104821419379732e-05,0.0,-1.1368683772161603e-12,0.0,0.0,172.46642857142828,70.0,0.0,255.0,0.0
24.85000000000021,35.69708959658918,51.26840465996508,1319.9993381164968,-6.898589293768964e-05,-2.104821430748416e-05,0.0,5.684341886080801e-13,-1.1368683772161603e-12,0.0,172.39401785714256,70.0,0.0,255.0,0.0
24.90000000000021,35.69708613630285,51.26840403194262,1319.9993384685367,-6.89858928240028e-05,-2.104821430748416e-05,0.0,1.1368683772161603e-12,1.1368683772161603e-12,0.0,172.32160714285683,70.0,0.0,255.0,0.0
24.950000000000212,35.697082676454066,51.26840340393681,1319.9993388252333,-6.89858928240028e-05,-2.104821419379732e-05,0.0,-5.684341886080801e-13,0.0,0.0,172.2491964285711,70.0,0.0,255.0,0.0
25.000000000000213,35.6970792170428,51.268402775946974,1319.9993391791359,-6.898589288084622e-05,-2.104821430748416e-05,0.0,0.0,-1.1368683772161603e-12,0.0,172.17678571428542,70.0,0.0,255.0,0.0
25.050000000000214,35.69707575806908,51.26840214797244,1319.9993395321071,-6.89858928240028e-05,-2.104821430748416e-05,0.0,0.0,0.0,0.0,172.1043749999997,70.0,0.0,255.0,0.0
25.100000000000215,35.697072299532934,51.268401520012524,1319.999339886941,-6.898589288084622e-05,-2.104821430748416e-05,0.0,-5.684341886080801e-13,0.0,0.0,172.03196428571397,70.0,0.0,255.0,0.0
25.150000000000215,35.697068841434366,51.26840089206656,1319.999340241775,-6.898589288084622e-05,-2.104821430748416e-05,0.0,5.684341886080801e-13,1.1368683772161603e-12,0.0,171.95955357142827,70.0,0.0,255.0,0.0
25.200000000000216,35.697065383773406,51.26840026413385,1319.9993405984715,-6.89858928240028e-05,-2.104821419379732e-05,0.0,0.0,0.0,0.0,171.88714285714255,70.0,0.0,255.0,0.0
25.250000000000217,35.697061926550035,51.268399636213736,1319.9993409533054,-6.898589288084622e-05,-2.104821430748416e-05,0.0,0.0,-1.1368683772161603e-12,0.0,171.81473214285683,70.0,0.0,255.0,0.0
25.300000000000217,35.69705846976429,51.26839900830552,1319.9993413081393,-6.89858928240028e-05,-2.104821430748416e-05,0.0,5.684341886080801e-13,0.0,0.0,171.74232142857113,70.0,0.0,255.0,0.0
25.350000000000218,35.6970550134162,51.268398380408534,1319.9993416639045,-6.89858928240028e-05,-2.104821430748416e-05,0.0,-1.1368683772161603e-12,0.0,0.0,171.6699107142854,70.0,0.0,255.0,0.0
25.40000000000022,35.69705155750573,51.2683977525221,1319.9993420196697,-6.898589293768964e-05,-2.104821430748416e-05,0.0,-5.684341886080801e-13,1.1368683772161603e-12,0.0,171.59749999999968,70.0,0.0,255.0,0.0
25.45000000000022,35.69704810203293,51.268397124645546,1319.9993423763663,-6.898589288084622e-05,-2.104821419379732e-05,0.0,1.1368683772161603e-12,0.0,0.0,171.52508928571396,70.0,0.0,255.0,0.0
25.50000000000022,35.697044646997796,51.268396496778195,1319.9993427330628,-6.89858928240028e-05,-2.104821430748416e-05,0.0,0.0,-1.1368683772161603e-12,0.0,171.45267857142827,70.0,0.0,255.0,0.0
25.55000000000022,35.69704119240033,51.26839586891935,1319.9993430897593,-6.898589288084622e-05,-2.104821430748416e-05,0.0,0.0,1.1368683772161603e-12,0.0,171.38026785714254,70.0,0.0,255.0,0.0
25.60000000000022,35.69703773824053,51.26839524106834,1319.999343446456,-6.89858928240028e-05,-2.104821419379732e-05,0.0,5.684341886080801e-13,0.0,0.0,171.30785714285682,70.0,0.0,255.0,0.0
25.650000000000222,35.697034284518445,51.2683946132245,1319.9993438031524,-6.89858928240028e-05,-2.104821430748416e-05,0.0,0.0,-2.2737367544323206e-12,0.0,171.2354464285711,70.0,0.0,255.0,0.0
25.700000000000223,35.69703083123405,51.26839398538714,1319.9993441589177,-6.89858928240028e-05,-2.1048214421170997e-05,0.0,-5.684341886080801e-13,0.0,0.0,171.1630357142854,70.0,0.0,255.0,0.0
25.750000000000224,35.697027378387375,51.26839335755558,1319.9993445184082,-6.898589288084622e-05,-2.104821430748416e-05,0.0,-1.1368683772161603e-12,2.2737367544323206e-12,0.0,171.09062499999968,70.0,0.0,255.0,0.0
25.800000000000225,35.69702392597838,51.26839272972917,1319.9993448741734,-6.898589293768964e-05,-2.104821419379732e-05,0.0,5.684341886080801e-13,0.0,0.0,171.01821428571395,70.0,0.0,255.0,0.0
25.850000000000225,35.697020474007104,51.26839210190719,1319.9993452318013,-6.89858928240028e-05,-2.104821430748416e-05,0.0,1.1368683772161603e-12,-1.1368683772161603e-12,0.0,170.94580357142826,70.0,0.0,255.0,0.0
25.900000000000226,35.697017022473574,51.26839147408898,1319.9993455884978,-6.89858928240028e-05,-2.104821430748416e-05,0.0,-5.684341886080801e-13,0.0,0.0,170.87339285714253,70.0,0.0,255.0,0.0
25.950000000000227,35.697013571377745,51.26839084627389,1319.999345947057,-6.898589288084622e-05,-2.104821430748416e-05,0.0,0.0,0.0,0.0,170.8009821428568,70.0,0.0,255.0,0.0
26.000000000000227,35.69701012071964,51.26839021846118,1319.9993463056162,-6.89858928240028e-05,-2.104821430748416e-05,0.0,0.0,1.1368683772161603e-12,0.0,170.72857142857112,70.0,0.0,255.0,0.0
26.050000000000228,35.697006670499285,51.268389590650216,1319.999346663244,-6.898589288084622e-05,-2.104821419379732e-05,0.0,-5.684341886080801e-13,0.0,0.0,170.6561607142854,70.0,0.0,255.0,0.0
26.10000000000023,35.69700322071663,51.26838896284031,1319.9993470227346,-6.898589288084622e-05,-2.104821430748416e-05,0.0,5.684341886080801e-13,-1.1368683772161603e-12,0.0,170.58374999999967,70.0,0.0,255.0,0.0
26.15000000000023,35.69699977137172,51.26838833503079,1319.9993473803625,-6.89858928240028e-05,-2.104821430748416e-05,0.0,0.0,1.1368683772161603e-12,0.0,170.51133928571394,70.0,0.0,255.0,0.0
26.20000000000023,35.696996322464535,51.26838770722098,1319.9993477389216,-6.898589288084622e-05,-2.104821419379732e-05,0.0,0.0,0.0,0.0,170.43892857142825,70.0,0.0,255.0,0.0
26.25000000000023,35.696992873995086,51.268387079410175,1319.9993480984122,-6.89858928240028e-05,-2.104821430748416e-05,0.0,5.684341886080801e-13,-1.1368683772161603e-12,0.0,170.36651785714253,70.0,0.0,255.0,0.0
26.30000000000023,35.69698942596336,51.268386451597735,1319.99934845604,-6.89858928240028e-05,-2.104821430748416e-05,0.0,-1.1368683772161603e-12,0.0,0.0,170.2941071428568,70.0,0.0,255.0,0.0
26.350000000000232,35.69698597836936,51.26838582378294,1319.9993488145992,-6.898589293768964e-05,-2.104821430748416e-05,0.0,-5.684341886080801e-13,0.0,0.0,170.2216964285711,70.0,0.0,255.0,0.0
26.400000000000233,35.696982531213074,51.26838519596515,1319.9993491740897,-6.898589288084622e-05,-2.104821430748416e-05,0.0,1.1368683772161603e-12,1.1368683772161603e-12,0.0,170.14928571428538,70.0,0.0,255.0,0.0
26.450000000000234,35.69697908449454,51.26838456814367,1319.999349532649,-6.89858928240028e-05,-2.104821419379732e-05,0.0,0.0,0.0,0.0,170.07687499999966,70.0,0.0,255.0,0.0
26.500000000000234,35.69697563821369,51.26838394031782,1319.999349891208,-6.898589288084622e-05,-2.104821430748416e-05,0.0,0.0,-2.2737367544323206e-12,0.0,170.00446428571394,70.0,0.0,255.0,0.0
26.550000000000235,35.69697219237056,51.268383312486925,1319.9993502506986,-6.89858928240028e-05,-2.1048214421170997e-05,0.0,5.684341886080801e-13,0.0,0.0,169.93205357142824,70.0,0.0,255.0,0.0
26.600000000000236,35.69696874696514,51.26838268465031,1319.9993506083265,-6.89858928240028e-05,-2.104821430748416e-05,0.0,0.0,2.2737367544323206e-12,0.0,169.85964285714252,70.0,0.0,255.0,0.0
26.650000000000237,35.696965301997416,51.26838205680729,1319.9993509687483,-6.89858928240028e-05,-2.104821419379732e-05,0.0,-5.684341886080801e-13,0.0,0.0,169.7872321428568,70.0,0.0,255.0,0.0
26.700000000000237,35.696961857467386,51.26838142895719,1319.9993513273075,-6.898589288084622e-05,-2.104821430748416e-05,0.0,-1.1368683772161603e-12,-1.1368683772161603e-12,0.0,169.7148214285711,70.0,0.0,255.0,0.0
26.750000000000238,35.69695841337503,51.268380801099326,1319.999351686798,-6.898589293768964e-05,-2.104821430748416e-05,0.0,5.684341886080801e-13,1.1368683772161603e-12,0.0,169.64241071428538,70.0,0.0,255.0,0.0
26.80000000000024,35.69695496972035,51.26838017323304,1319.9993520462885,-6.89858928240028e-05,-2.104821419379732e-05,0.0,1.1368683772161603e-12,1.1368683772161603e-12,0.0,169.56999999999965,70.0,0.0,255.0,0.0
26.85000000000024,35.69695152650336,51.26837954535763,1319.9993524039164,-6.89858928240028e-05,-2.104821419379732e-05,0.0,-5.684341886080801e-13,-1.1368683772161603e-12,0.0,169.49758928571396,70.0,0.0,255.0,0.0
26.90000000000024,35.696948083724,51.26837891747244,1319.999352763407,-6.898589288084622e-05,-2.104821430748416e-05,0.0,0.0,-2.2737367544323206e-12,0.0,169.42517857142823,70.0,0.0,255.0,0.0
26.95000000000024,35.696944641382316,51.268378289576766,1319.9993531228974,-6.89858928240028e-05,-2.1048214421170997e-05,0.0,0.0,0.0,0.0,169.3527678571425,70.0,0.0,255.0,0.0
27.00000000000024,35.69694119947825,51.26837766166995,1319.9993534842506,-6.898589288084622e-05,-2.104821430748416e-05,0.0,-1.1368683772161603e-12,2.2737367544323206e-12,0.0,169.2803571428568,70.0,0.0,255.0,0.0
27.050000000000242,35.696937758011806,51.26837703375131,1319.9993538418785,-6.898589293768964e-05,-2.104821419379732e-05,0.0,5.684341886080801e-13,0.0,0.0,169.2079464285711,70.0,0.0,255.0,0.0
27.100000000000243,35.696934316982976,51.268376405820156,1319.9993542004377,-6.89858928240028e-05,-2.104821430748416e-05,0.0,1.1368683772161603e-12,-1.1368683772161603e-12,0.0,169.13553571428537,70.0,0.0,255.0,0.0
27.150000000000244,35.69693087639176,51.268375777875825,1319.9993545599282,-6.89858928240028e-05,-2.104821430748416e-05,0.0,0.0,0.0,0.0,169.06312499999964,70.0,0.0,255.0,0.0
27.200000000000244,35.69692743623812,51.268375149917645,1319.9993549194187,-6.89858928240028e-05,-2.104821430748416e-05,0.0,0.0,0.0,0.0,168.99071428571392,70.0,0.0,255.0,0.0
27.250000000000245,35.696923996522045,51.26837452194492,1319.9993552779779,-6.89858928240028e-05,-2.104821430748416e-05,0.0,-1.1368683772161603e-12,1.1368683772161603e-12,0.0,168.91830357142823,70.0,0.0,255.0,0.0
27.300000000000246,35.69692055724352,51.26837389395697,1319.999355636537,-6.898589293768964e-05,-2.104821419379732e-05,0.0,-5.684341886080801e-13,0.0,0.0,168.8458928571425,70.0,0.0,255.0,0.0
27.350000000000247,35.69691711840255,51.26837326595314,1319.999355994165,-6.898589288084622e-05,-2.104821430748416e-05,0.0,1.1368683772161603e-12,-1.1368683772161603e-12,0.0,168.77348214285678,70.0,0.0,255.0,0.0
27.400000000000247,35.69691367999909,51.26837263793273,1319.9993563545868,-6.89858928240028e-05,-2.104821430748416e-05,0.0,0.0,1.1368683772161603e-12,0.0,168.70107142857108,70.0,0.0,255.0,0.0
27.450000000000248,35.696910242033134,51.268372009895074,1319.9993567140773,-6.898589288084622e-05,-2.104821419379732e-05,0.0,0.0,0.0,0.0,168.62866071428536,70.0,0.0,255.0,0.0
27.50000000000025,35.696906804504664,51.268371381839486,1319.9993570726365,-6.89858928240028e-05,-2.104821430748416e-05,0.0,5.684341886080801e-13,-2.2737367544323206e-12,0.0,168.55624999999964,70.0,0.0,255.0,0.0
27.55000000000025,35.696903367413675,51.268370753765296,1319.999357432127,-6.89858928240028e-05,-2.1048214421170997e-05,0.0,0.0,0.0,0.0,168.48383928571394,70.0,0.0,255.0,0.0
27.60000000000025,35.69689993076013,51.268370125671815,1319.9993577897549,-6.89858928240028e-05,-2.104821430748416e-05,0.0,-5.684341886080801e-13,2.2737367544323206e-12,0.0,168.41142857142822,70.0,0.0,255.0,0.0
27.65000000000025,35.69689649454401,51.26836949755838,1319.9993581492454,-6.898589288084622e-05,-2.104821419379732e-05,0.0,-1.1368683772161603e-12,1.1368683772161603e-12,0.0,168.3390178571425,70.0,0.0,255.0,0.0
27.70000000000025,35.69689305876529,51.26836886942431,1319.9993585078046,-6.898589293768964e-05,-2.104821419379732e-05,0.0,5.684341886080801e-13,-1.1368683772161603e-12,0.0,168.26660714285677,70.0,0.0,255.0,0.0
27.750000000000252,35.69688962342396,51.26836824126893,1319.9993588663638,-6.89858928240028e-05,-2.104821430748416e-05,0.0,1.1368683772161603e-12,-2.2737367544323206e-12,0.0,168.19419642857108,70.0,0.0,255.0,0.0
27.800000000000253,35.69688618852,51.26836761309154,1319.9993592239916,-6.89858928240028e-05,-2.1048214421170997e-05,0.0,-5.684341886080801e-13,0.0,0.0,168.12178571428535,70.0,0.0,255.0,0.0
27.850000000000254,35.69688275405337,51.2683669848915,1319.9993595844135,-6.898589288084622e-05,-2.104821430748416e-05,0.0,0.0,2.2737367544323206e-12,0.0,168.04937499999963,70.0,0.0,255.0,0.0
27.900000000000254,35.69687932002407,51.268366356668096,1319.9993599392474,-6.89858928240028e-05,-2.104821419379732e-05,0.0,0.0,0.0,0.0,167.9769642857139,70.0,0.0,255.0,0.0
27.950000000000255,35.69687588643206,51.26836572842067,1319.9993602987379,-6.898589288084622e-05,-2.104821430748416e-05,0.0,-1.1368683772161603e-12,-1.1368683772161603e-12,0.0,167.9045535714282,70.0,0.0,255.0,0.0
28.000000000000256,35.696872453277315,51.268365100148536,1319.9993606563658,-6.898589293768964e-05,-2.104821430748416e-05,0.0,5.684341886080801e-13,1.1368683772161603e-12,0.0,167.8321428571425,70.0,0.0,255.0,0.0
28.050000000000257,35.6968690205598,51.26836447185102,1319.9993610139936,-6.89858928240028e-05,-2.104821419379732e-05,0.0,1.1368683772161603e-12,0.0,0.0,167.75973214285676,70.0,0.0,255.0,0.0
28.100000000000257,35.696865588279515,51.268363843527446,1319.9993613688275,-6.89858928240028e-05,-2.104821430748416e-05,0.0,0.0,-1.1368683772161603e-12,0.0,167.68732142857107,70.0,0.0,255.0,0.0
28.150000000000258,35.69686215643641,51.268363215177146,1319.9993617292494,-6.89858928240028e-05,-2.104821430748416e-05,0.0,0.0,0.0,0.0,167.61491071428534,70.0,0.0,255.0,0.0
28.20000000000026,35.696858725030474,51.26836258679942,1319.9993620850146,-6.89858928240028e-05,-2.104821430748416e-05,0.0,-1.1368683772161603e-12,0.0,0.0,167.54249999999962,70.0,0.0,255.0,0.0
28.25000000000026,35.696855294061656,51.26836195839361,1319.9993624426425,-6.898589293768964e-05,-2.104821430748416e-05,0.0,-5.684341886080801e-13,1.1368683772161603e-12,0.0,167.47008928571393,70.0,0.0,255.0,0.0
28.30000000000026,35.696851863529936,51.26836132995903,1319.9993628012016,-6.898589288084622e-05,-2.104821419379732e-05,0.0,1.1368683772161603e-12,0.0,0.0,167.3976785714282,70.0,0.0,255.0,0.0
28.35000000000026,35.696848433435306,51.268360701495006,1319.9993631560355,-6.89858928240028e-05,-2.104821430748416e-05,0.0,0.0,-2.2737367544323206e-12,0.0,167.32526785714248,70.0,0.0,255.0,0.0
28.40000000000026,35.6968450037777,51.26836007300086,1319.9993635145947,-6.898589288084622e-05,-2.1048214421170997e-05,0.0,0.0,0.0,0.0,167.25285714285675,70.0,0.0,255.0,0.0
28.450000000000262,35.69684157455712,51.26835944447591,1319.9993638694286,-6.89858928240028e-05,-2.104821430748416e-05,0.0,5.684341886080801e-13,2.2737367544323206e-12,0.0,167.18044642857106,70.0,0.0,255.0,0.0
28.500000000000263,35.696838145773526,51.268358815919505,1319.9993642261252,-6.89858928240028e-05,-2.104821419379732e-05,0.0,0.0,1.1368683772161603e-12,0.0,167.10803571428534,70.0,0.0,255.0,0.0
28.550000000000264,35.69683471742686,51.26835818733093,1319.9993645828217,-6.89858928240028e-05,-2.104821419379732e-05,0.0,-5.684341886080801e-13,-1.1368683772161603e-12,0.0,167.0356249999996,70.0,0.0,255.0,0.0
28.600000000000264,35.696831289517114,51.268357558709525,1319.9993649367243,-6.898589288084622e-05,-2.104821430748416e-05,0.0,-1.1368683772161603e-12,-1.1368683772161603e-12,0.0,166.96321428571392,70.0,0.0,255.0,0.0
28.650000000000265,35.69682786204424,51.26835693005461,1319.9993652943522,-6.898589293768964e-05,-2.104821430748416e-05,0.0,5.684341886080801e-13,1.1368683772161603e-12,0.0,166.8908035714282,70.0,0.0,255.0,0.0
28.700000000000266,35.696824435008196,51.268356301365515,1319.9993656501174,-6.89858928240028e-05,-2.104821419379732e-05,0.0,1.1368683772161603e-12,0.0,0.0,166.81839285714247,70.0,0.0,255.0,0.0
28.750000000000266,35.69682100840898,51.26835567264157,1319.9993660049513,-6.89858928240028e-05,-2.104821430748416e-05,0.0,-5.684341886080801e-13,-2.2737367544323206e-12,0.0,166.74598214285675,70.0,0.0,255.0,0.0
28.800000000000267,35.69681758224653,51.26835504388206,1319.9993663588539,-6.898589288084622e-05,-2.1048214421170997e-05,0.0,0.0,0.0,0.0,166.67357142857105,70.0,0.0,255.0,0.0
28.850000000000268,35.69681415652081,51.26835441508636,1319.9993667155504,-6.89858928240028e-05,-2.104821430748416e-05,0.0,0.0,2.2737367544323206e-12,0.0,166.60116071428533,70.0,0.0,255.0,0.0
28.90000000000027,35.69681073123179,51.26835378625377,1319.9993670685217,-6.898589288084622e-05,-2.104821419379732e-05,0.0,-1.1368683772161603e-12,0.0,0.0,166.5287499999996,70.0,0.0,255.0,0.0
28.95000000000027,35.69680730637944,51.26835315738361,1319.9993674224243,-6.898589293768964e-05,-2.104821430748416e-05,0.0,5.684341886080801e-13,-1.1368683772161603e-12,0.0,166.4563392857139,70.0,0.0,255.0,0.0
29.00000000000027,35.696803881963696,51.26835252847519,1319.9993677763268,-6.89858928240028e-05,-2.104821430748416e-05,0.0,1.1368683772161603e-12,0.0,0.0,166.38392857142819,70.0,0.0,255.0,0.0
29.05000000000027,35.69680045798453,51.26835189952788,1319.9993681311607,-6.89858928240028e-05,-2.104821430748416e-05,0.0,0.0,0.0,0.0,166.31151785714246,70.0,0.0,255.0,0.0
29.10000000000027,35.6967970344419,51.26835127054094,1319.999368484132,-6.89858928240028e-05,-2.104821430748416e-05,0.0,0.0,1.1368683772161603e-12,0.0,166.23910714285677,70.0,0.0,255.0,0.0
29.150000000000272,35.696793611335785,51.26835064151375,1319.999368836172,-6.89858928240028e-05,-2.104821419379732e-05,0.0,-1.1368683772161603e-12,0.0,0.0,166.16669642857104,70.0,0.0,255.0,0.0
29.200000000000273,35.69679018866611,51.268350012445616,1319.9993691891432,-6.898589293768964e-05,-2.104821430748416e-05,0.0,-5.684341886080801e-13,-1.1368683772161603e-12,0.0,166.09428571428532,70.0,0.0,255.0,0.0
29.250000000000274,35.69678676643285,51.26834938333584,1319.9993695430458,-6.898589288084622e-05,-2.104821430748416e-05,0.0,1.1368683772161603e-12,1.1368683772161603e-12,0.0,166.0218749999996,70.0,0.0,255.0,0.0
29.300000000000274,35.69678334463596,51.26834875418377,1319.9993698941544,-6.89858928240028e-05,-2.104821419379732e-05,0.0,0.0,0.0,0.0,165.9494642857139,70.0,0.0,255.0,0.0
29.350000000000275,35.69677992327541,51.268348124988734,1319.9993702471256,-6.898589288084622e-05,-2.104821430748416e-05,0.0,0.0,-1.1368683772161603e-12,0.0,165.87705357142818,70.0,0.0,255.0,0.0
29.400000000000276,35.69677650235112,51.26834749575002,1319.999370597303,-6.89858928240028e-05,-2.104821430748416e-05,0.0,5.684341886080801e-13,0.0,0.0,165.80464285714245,70.0,0.0,255.0,0.0
29.450000000000276,35.696773081863086,51.26834686646699,1319.9993709493428,-6.89858928240028e-05,-2.104821430748416e-05,0.0,-1.1368683772161603e-12,0.0,0.0,165.73223214285673,70.0,0.0,255.0,0.0
29.500000000000277,35.69676966181123,51.26834623713896,1319.9993713004515,-6.898589293768964e-05,-2.104821430748416e-05,0.0,-5.684341886080801e-13,1.1368683772161603e-12,0.0,165.65982142857104,70.0,0.0,255.0,0.0
29.550000000000278,35.69676624219552,51.268345607765234,1319.9993716524914,-6.898589288084622e-05,-2.104821419379732e-05,0.0,1.1368683772161603e-12,0.0,0.0,165.5874107142853,70.0,0.0,255.0,0.0
29.60000000000028,35.69676282301591,51.26834497834518,1319.9993720017374,-6.89858928240028e-05,-2.104821430748416e-05,0.0,5.684341886080801e-13,-2.2737367544323206e-12,0.0,165.5149999999996,70.0,0.0,255.0,0.0
29.65000000000028,35.69675940427235,51.26834434887806,1319.9993723519146,-6.89858928240028e-05,-2.1048214421170997e-05,0.0,0.0,0.0,0.0,165.4425892857139,70.0,0.0,255.0,0.0
29.70000000000028,35.69675598596478,51.26834371936325,1319.999372702092,-6.89858928240028e-05,-2.104821430748416e-05,0.0,-5.684341886080801e-13,2.2737367544323206e-12,0.0,165.37017857142817,70.0,0.0,255.0,0.0
29.75000000000028,35.69675256809317,51.26834308980007,1319.999373051338,-6.898589288084622e-05,-2.104821419379732e-05,0.0,0.0,0.0,0.0,165.29776785714245,70.0,0.0,255.0,0.0
29.80000000000028,35.696749150657446,51.26834246018781,1319.9993734015152,-6.89858928240028e-05,-2.104821430748416e-05,0.0,0.0,-1.1368683772161603e-12,0.0,165.22535714285675,70.0,0.0,255.0,0.0
29.850000000000282,35.69674573365759,51.26834183052582,1319.9993737488985,-6.898589288084622e-05,-2.104821430748416e-05,0.0,-1.1368683772161603e-12,1.1368683772161603e-12,0.0,165.15294642857103,70.0,0.0,255.0,0.0
29.900000000000283,35.69674231709352,51.26834120081344,1319.9993740981445,-6.898589293768964e-05,-2.104821419379732e-05,0.0,5.684341886080801e-13,0.0,0.0,165.0805357142853,70.0,0.0,255.0,0.0
29.950000000000284,35.696738900965194,51.26834057104996,1319.9993744445965,-6.89858928240028e-05,-2.104821430748416e-05,0.0,1.1368683772161603e-12,-1.1368683772161603e-12,0.0,165.00812499999958,70.0,0.0,255.0,0.0
30.000000000000284,35.69673548527257,51.26833994123471,1319.9993747919798,-6.89858928240028e-05,-2.104821430748416e-05,0.0,0.0,0.0,0.0,164.93571428571389,70.0,0.0,255.0,0.0
30.050000000000285,35.696732070015564,51.26833931136705,1319.9993751402944,-6.89858928240028e-05,-2.104821430748416e-05,0.0,0.0,0.0,0.0,164.86330357142816,70.0,0.0,255.0,0.0
30.100000000000286,35.69672865519416,51.26833868144626,1319.9993754867464,-6.89858928240028e-05,-2.104821430748416e-05,0.0,-1.1368683772161603e-12,1.1368683772161603e-12,0.0,164.79089285714244,70.0,0.0,255.0,0.0
30.150000000000286,35.69672524080827,51.26833805147171,1319.9993758331984,-6.898589293768964e-05,-2.104821419379732e-05,0.0,-5.684341886080801e-13,0.0,0.0,164.71848214285671,70.0,0.0,255.0,0.0
30.200000000000287,35.696721826857875,51.26833742144269,1319.9993761805817,-6.898589288084622e-05,-2.104821430748416e-05,0.0,1.1368683772161603e-12,-1.1368683772161603e-12,0.0,164.64607142857102,70.0,0.0,255.0,0.0
30.250000000000288,35.69671841334288,51.268336791358536,1319.9993765242398,-6.89858928240028e-05,-2.104821430748416e-05,0.0,0.0,0.0,0.0,164.5736607142853,70.0,0.0,255.0,0.0
30.30000000000029,35.69671500026325,51.26833616121857,1319.9993768697605,-6.898589288084622e-05,-2.104821430748416e-05,0.0,0.0,0.0,0.0,164.50124999999957,70.0,0.0,255.0,0.0
30.35000000000029,35.69671158761891,51.26833553102213,1319.9993772143498,-6.89858928240028e-05,-2.104821430748416e-05,0.0,5.684341886080801e-13,1.1368683772161603e-12,0.0,164.42883928571388,70.0,0.0,255.0,0.0
30.40000000000029,35.696708175409825,51.26833490076852,1319.9993775589392,-6.89858928240028e-05,-2.104821419379732e-05,0.0,-1.1368683772161603e-12,0.0,0.0,164.35642857142815,70.0,0.0,255.0,0.0
30.45000000000029,35.696704763635914,51.2683342704571,1319.9993779035285,-6.898589293768964e-05,-2.104821430748416e-05,0.0,-5.684341886080801e-13,-1.1368683772161603e-12,0.0,164.28401785714243,70.0,0.0,255.0,0.0
30.50000000000029,35.69670135229715,51.26833364008717,1319.9993782462552,-6.898589288084622e-05,-2.104821430748416e-05,0.0,1.1368683772161603e-12,1.1368683772161603e-12,0.0,164.21160714285674,70.0,0.0,255.0,0.0
30.550000000000292,35.69669794139344,51.26833300965806,1319.999378588982,-6.89858928240028e-05,-2.104821419379732e-05,0.0,5.684341886080801e-13,0.0,0.0,164.139196428571,70.0,0.0,255.0,0.0
30.600000000000293,35.69669453092472,51.268332379169095,1319.99937893264,-6.89858928240028e-05,-2.104821430748416e-05,0.0,0.0,-2.2737367544323206e-12,0.0,164.0667857142853,70.0,0.0,255.0,0.0
30.650000000000293,35.69669112089095,51.268331748619595,1319.999379273504,-6.89858928240028e-05,-2.1048214421170997e-05,0.0,-5.684341886080801e-13,0.0,0.0,163.99437499999956,70.0,0.0,255.0,0.0
30.700000000000294,35.696687711292036,51.268331118008895,1319.9993796152994,-6.898589288084622e-05,-2.104821430748416e-05,0.0,0.0,2.2737367544323206e-12,0.0,163.92196428571387,70.0,0.0,255.0,0.0
30.750000000000295,35.696684302127956,51.268330487336335,1319.999379958026,-6.89858928240028e-05,-2.104821419379732e-05,0.0,0.0,0.0,0.0,163.84955357142815,70.0,0.0,255.0,0.0
30.800000000000296,35.696680893398636,51.26832985660122,1319.9993802979589,-6.898589288084622e-05,-2.104821430748416e-05,0.0,-1.1368683772161603e-12,-1.1368683772161603e-12,0.0,163.77714285714242,70.0,0.0,255.0,0.0
30.850000000000296,35.696677485103976,51.26832922580288,1319.999380638823,-6.898589293768964e-05,-2.104821430748416e-05,0.0,5.684341886080801e-13,0.0,0.0,163.70473214285673,70.0,0.0,255.0,0.0
30.900000000000297,35.69667407724395,51.26832859494064,1319.9993809787557,-6.89858928240028e-05,-2.104821430748416e-05,0.0,1.1368683772161603e-12,0.0,0.0,163.632321428571,70.0,0.0,255.0,0.0
30.950000000000298,35.696670669818495,51.26832796401384,1319.9993813168257,-6.89858928240028e-05,-2.104821430748416e-05,0.0,-5.684341886080801e-13,1.1368683772161603e-12,0.0,163.55991071428528,70.0,0.0,255.0,0.0
31.0000000000003,35.696667262827475,51.26832733302181,1319.9993816576898,-6.898589288084622e-05,-2.104821419379732e-05,0.0,0.0,0.0,0.0,163.48749999999956,70.0,0.0,255.0,0.0
31.0500000000003,35.69666385627092,51.26832670196385,1319.999381992966,-6.89858928240028e-05,-2.104821430748416e-05,0.0,0.0,-1.1368683772161603e-12,0.0,163.41508928571386,70.0,0.0,255.0,0.0
31.1000000000003,35.696660450148705,51.268326070839315,1319.9993823319674,-6.898589288084622e-05,-2.104821430748416e-05,0.0,-5.684341886080801e-13,1.1368683772161603e-12,0.0,163.34267857142814,70.0,0.0,255.0,0.0
31.1500000000003,35.69665704446077,51.26832543964752,1319.9993826681748,-6.898589288084622e-05,-2.104821419379732e-05,0.0,5.684341886080801e-13,0.0,0.0,163.27026785714241,70.0,0.0,255.0,0.0
31.2000000000003,35.69665363920705,51.26832480838778,1319.999383006245,-6.89858928240028e-05,-2.104821430748416e-05,0.0,0.0,-1.1368683772161603e-12,0.0,163.19785714285672,70.0,0.0,255.0,0.0
31.250000000000302,35.696650234387455,51.26832417705944,1319.999383341521,-6.898589288084622e-05,-2.104821430748416e-05,0.0,0.0,0.0,0.0,163.125446428571,70.0,0.0,255.0,0.0
31.300000000000303,35.69664683000194,51.26832354566182,1319.9993836758658,-6.89858928240028e-05,-2.104821430748416e-05,0.0,5.684341886080801e-13,0.0,0.0,163.05303571428527,70.0,0.0,255.0,0.0
31.350000000000303,35.69664342605044,51.26832291419425,1319.9993840120733,-6.89858928240028e-05,-2.104821430748416e-05,0.0,-1.1368683772161603e-12,1.1368683772161603e-12,0.0,162.98062499999958,70.0,0.0,255.0,0.0
31.400000000000304,35.69664002253284,51.26832228265606,1319.9993843454868,-6.898589293768964e-05,-2.104821419379732e-05,0.0,-5.684341886080801e-13,0.0,0.0,162.90821428571385,70.0,0.0,255.0,0.0
31.450000000000305,35.69663661944911,51.26832165104658,1319.9993846816942,-6.898589288084622e-05,-2.104821430748416e-05,0.0,1.1368683772161603e-12,-2.2737367544323206e-12,0.0,162.83580357142813,70.0,0.0,255.0,0.0
31.500000000000306,35.69663321679916,51.26832101936512,1319.999385013245,-6.89858928240028e-05,-2.1048214421170997e-05,0.0,5.684341886080801e-13,0.0,0.0,162.7633928571424,70.0,0.0,255.0,0.0
31.550000000000306,35.69662981458291,51.26832038761103,1319.9993853475899,-6.89858928240028e-05,-2.104821430748416e-05,0.0,0.0,2.2737367544323206e-12,0.0,162.6909821428567,70.0,0.0,255.0,0.0
31.600000000000307,35.6966264128003,51.26831975578362,1319.9993856791407,-6.89858928240028e-05,-2.104821419379732e-05,0.0,-5.684341886080801e-13,0.0,0.0,162.618571428571,70.0,0.0,255.0,0.0
31.650000000000308,35.69662301145122,51.268319123882236,1319.9993860106915,-6.898589288084622e-05,-2.104821430748416e-05,0.0,0.0,-1.1368683772161603e-12,0.0,162.54616071428526,70.0,0.0,255.0,0.0
31.70000000000031,35.69661961053564,51.26831849190619,1319.999386341311,-6.89858928240028e-05,-2.104821430748416e-05,0.0,0.0,1.1368683772161603e-12,0.0,162.47374999999954,70.0,0.0,255.0,0.0
31.75000000000031,35.69661621005345,51.268317859854825,1319.9993866719306,-6.898589288084622e-05,-2.104821419379732e-05,0.0,-1.1368683772161603e-12,1.1368683772161603e-12,0.0,162.40133928571385,70.0,0.0,255.0,0.0
31.80000000000031,35.696612810004595,51.26831722772747,1319.99938700255,-6.898589293768964e-05,-2.104821419379732e-05,0.0,5.684341886080801e-13,-1.1368683772161603e-12,0.0,162.32892857142812,70.0,0.0,255.0,0.0
31.85000000000031,35.696609410388966,51.26831659552343,1319.999387331307,-6.89858928240028e-05,-2.104821430748416e-05,0.0,1.1368683772161603e-12,-2.2737367544323206e-12,0.0,162.2565178571424,70.0,0.0,255.0,0.0
31.90000000000031,35.69660601120651,51.26831596324205,1319.9993876600638,-6.89858928240028e-05,-2.1048214421170997e-05,0.0,-5.684341886080801e-13,0.0,0.0,162.1841071428567,70.0,0.0,255.0,0.0
31.950000000000312,35.69660261245714,51.26831533088267,1319.9993879878893,-6.898589288084622e-05,-2.104821430748416e-05,0.0,0.0,1.1368683772161603e-12,0.0,162.11169642857098,70.0,0.0,255.0,0.0
32.00000000000031,35.696599214140775,51.26831469844461,1319.9993883147836,-6.89858928240028e-05,-2.104821430748416e-05,0.0,5.684341886080801e-13,2.710505431213761e-20,0.0,162.03928571428526,70.0,0.0,255.0,0.0
32.05000000000031,35.69659581625732,51.26831406592719,1319.9993886426091,-6.89858928240028e-05,-2.104821430748416e-05,0.0,1.0842021724855044e-19,1.1368683772161603e-12,0.0,161.96687499999956,70.0,0.0,255.0,0.0
32.100000000000314,35.69659241880671,51.26831343332975,1319.9993889676407,-6.89858928240028e-05,-2.104821419379732e-05,0.0,-5.684341886080801e-13,0.0,0.0,161.89446428571384,70.0,0.0,255.0,0.0
32.15000000000032,35.69658902178887,51.268312800651614,1319.9993892936036,-6.898589288084622e-05,-2.104821430748416e-05,0.0,-5.684342970282974e-13,-1.1368683772161603e-12,0.0,161.8220535714281,70.0,0.0,255.0,0.0
32.200000000000315,35.696585625203696,51.26831216789212,1319.9993896177039,-6.898589288084622e-05,-2.104821430748416e-05,0.0,5.684341886080801e-13,1.1368683772161603e-12,0.0,161.74964285714242,70.0,0.0,255.0,0.0
32.25000000000031,35.6965822290511,51.26831153505058,1319.9993899427354,-6.89858928240028e-05,-2.104821419379732e-05,0.0,1.0842021724855044e-19,1.1368683772161603e-12,0.0,161.6772321428567,70.0,0.0,255.0,0.0
32.30000000000032,35.696578833331024,51.268310902126345,1319.999390264973,-6.898589288084622e-05,-2.104821419379732e-05,0.0,-5.684341886080801e-13,-2.2737367544323206e-12,0.0,161.60482142857097,70.0,0.0,255.0,0.0
32.35000000000032,35.69657543804335,51.26831026911873,1319.999390588142,-6.898589288084622e-05,-2.1048214421170997e-05,0.0,-1.0842021724855044e-19,-1.1368683772161603e-12,0.0,161.53241071428525,70.0,0.0,255.0,0.0
32.40000000000032,35.69657204318802,51.26830963602708,1319.9993909103796,-6.898589288084622e-05,-2.104821430748416e-05,0.0,5.684341886080801e-13,2.2737367544323206e-12,0.0,161.45999999999952,70.0,0.0,255.0,0.0
32.450000000000315,35.69656864876493,51.26830900285071,1319.9993912326172,-6.89858928240028e-05,-2.104821419379732e-05,0.0,1.0842021724855044e-19,0.0,0.0,161.38758928571383,70.0,0.0,255.0,0.0
32.50000000000032,35.69656525477401,51.26830836958895,1319.9993915529922,-6.898589288084622e-05,-2.104821430748416e-05,0.0,-5.684341886080801e-13,-1.1368683772161603e-12,0.0,161.3151785714281,70.0,0.0,255.0,0.0
32.550000000000324,35.69656186121515,51.26830773624114,1319.9993918724358,-6.898589288084622e-05,-2.104821430748416e-05,0.0,5.684340801878629e-13,0.0,0.0,161.24276785714238,70.0,0.0,255.0,0.0
32.60000000000032,35.69655846808828,51.26830710280662,1319.9993921918795,-6.89858928240028e-05,-2.104821430748416e-05,0.0,5.684341886080801e-13,1.1368683772161603e-12,0.0,161.1703571428567,70.0,0.0,255.0,0.0
32.65000000000032,35.69655507539329,51.26830646928469,1319.9993925103918,-6.89858928240028e-05,-2.104821419379732e-05,0.0,1.0842021724855044e-19,1.1368683772161603e-12,0.0,161.09794642857096,70.0,0.0,255.0,0.0
32.70000000000032,35.69655168313011,51.26830583567471,1319.9993928279728,-6.89858928240028e-05,-2.104821419379732e-05,0.0,-1.1368683772161603e-12,-2.2737367544323206e-12,0.0,161.02553571428524,70.0,0.0,255.0,0.0
32.75000000000033,35.69654829129863,51.26830520197599,1319.9993931455538,-6.898589293768964e-05,-2.1048214421170997e-05,0.0,-1.0842021724855044e-19,0.0,0.0,160.95312499999955,70.0,0.0,255.0,0.0
32.800000000000324,35.696544899898775,51.26830456818788,1319.9993934612721,-6.89858928240028e-05,-2.104821419379732e-05,0.0,1.1368683772161603e-12,2.2737367544323206e-12,0.0,160.88071428571382,70.0,0.0,255.0,0.0
32.85000000000032,35.69654150893044,51.268303934309714,1319.9993937788531,-6.89858928240028e-05,-2.104821419379732e-05,0.0,-1.136868268795943e-12,-1.1368683772161603e-12,0.0,160.8083035714281,70.0,0.0,255.0,0.0
32.900000000000325,35.69653811839354,51.2683033003408,1319.9993940945715,-6.898589293768964e-05,-2.104821430748416e-05,0.0,0.0,-1.1368683772161603e-12,0.0,160.7358928571424,70.0,0.0,255.0,0.0
32.95000000000033,35.69653472828797,51.268302666280476,1319.9993944074959,-6.89858928240028e-05,-2.104821430748416e-05,0.0,5.684340801878629e-13,0.0,0.0,160.66348214285665,70.0,0.0,255.0,0.0
33.00000000000033,35.69653133861365,51.2683020321281,1319.9993947204202,-6.898589288084622e-05,-2.104821430748416e-05,0.0,0.0,0.0,0.0,160.59107142857096,70.0,0.0,255.0,0.0
33.050000000000324,35.69652794937049,51.268301397882965,1319.9993950352073,-6.89858928240028e-05,-2.104821430748416e-05,0.0,5.684342970282974e-13,0.0,0.0,160.51866071428526,70.0,0.0,255.0,0.0
33.10000000000033,35.69652456055837,51.268300763544424,1319.9993953472003,-6.89858928240028e-05,-2.104821430748416e-05,0.0,-1.1368683772161603e-12,0.0,0.0,160.4462499999995,70.0,0.0,255.0,0.0
33.15000000000033,35.69652117217721,51.268300129111815,1319.9993956563994,-6.898589293768964e-05,-2.104821430748416e-05,0.0,-1.0842021724855044e-19,0.0,0.0,160.3738392857138,70.0,0.0,255.0,0.0
33.20000000000033,35.696517784226906,51.26829949458446,1319.9993959674612,-6.89858928240028e-05,-2.104821430748416e-05,0.0,1.1368683772161603e-12,1.1368683772161603e-12,0.0,160.3014285714281,70.0,0.0,255.0,0.0
33.25000000000033,35.69651439670737,51.26829885996169,1319.999396278523,-6.89858928240028e-05,-2.104821419379732e-05,0.0,-1.136868268795943e-12,1.1368683772161603e-12,0.0,160.2290178571424,70.0,0.0,255.0,0.0
33.30000000000033,35.69651100961848,51.268298225242845,1319.9993965858594,-6.898589293768964e-05,-2.104821419379732e-05,0.0,0.0,-2.2737367544323206e-12,0.0,160.15660714285667,70.0,0.0,255.0,0.0
33.350000000000335,35.69650762296017,51.26829759042725,1319.9993968941271,-6.89858928240028e-05,-2.1048214421170997e-05,0.0,1.136868268795943e-12,0.0,0.0,160.08419642857095,70.0,0.0,255.0,0.0
33.40000000000033,35.696504236732316,51.26829695551425,1319.999397202395,-6.89858928240028e-05,-2.104821419379732e-05,0.0,-1.1368683772161603e-12,2.2737367544323206e-12,0.0,160.01178571428522,70.0,0.0,255.0,0.0
33.45000000000033,35.69650085093481,51.268296320503175,1319.9993975097314,-6.898589293768964e-05,-2.104821419379732e-05,0.0,1.0842021724855044e-19,-1.1368683772161603e-12,0.0,159.93937499999953,70.0,0.0,255.0,0.0
33.500000000000334,35.696497465567596,51.26829568539334,1319.9993978142738,-6.89858928240028e-05,-2.104821430748416e-05,0.0,1.1368683772161603e-12,-1.1368683772161603e-12,0.0,159.8669642857138,70.0,0.0,255.0,0.0
33.55000000000034,35.69649408063052,51.268295050184115,1319.999398120679,-6.89858928240028e-05,-2.104821430748416e-05,0.0,-1.0842021724855044e-19,0.0,0.0,159.79455357142808,70.0,0.0,255.0,0.0
33.600000000000335,35.6964906961235,51.26829441487479,1319.9993984252214,-6.89858928240028e-05,-2.104821430748416e-05,0.0,0.0,1.1368683772161603e-12,0.0,159.7221428571424,70.0,0.0,255.0,0.0
33.65000000000033,35.69648731204644,51.26829377946473,1319.99939872697,-6.89858928240028e-05,-2.104821419379732e-05,0.0,-5.684340801878629e-13,0.0,0.0,159.64973214285666,70.0,0.0,255.0,0.0
33.70000000000034,35.696483928399225,51.268293143953265,1319.9993990296498,-6.898589288084622e-05,-2.104821430748416e-05,0.0,-5.684341886080801e-13,-2.2737367544323206e-12,0.0,159.57732142857094,70.0,0.0,255.0,0.0
33.75000000000034,35.69648054518174,51.26829250833971,1319.9993993323296,-6.898589288084622e-05,-2.1048214421170997e-05,0.0,5.684340801878629e-13,1.1368683772161603e-12,0.0,159.50491071428522,70.0,0.0,255.0,0.0
33.80000000000034,35.696477162393904,51.268291872623415,1319.9993996312842,-6.89858928240028e-05,-2.104821419379732e-05,0.0,0.0,2.2737367544323206e-12,0.0,159.43249999999952,70.0,0.0,255.0,0.0
33.850000000000335,35.6964737800356,51.26829123680372,1319.9993999330327,-6.898589288084622e-05,-2.104821419379732e-05,0.0,-5.684340801878629e-13,-1.1368683772161603e-12,0.0,159.3600892857138,70.0,0.0,255.0,0.0
33.90000000000034,35.696470398106726,51.26829060087995,1319.999400231056,-6.898589288084622e-05,-2.104821430748416e-05,0.0,5.684341886080801e-13,-1.1368683772161603e-12,0.0,159.28767857142807,70.0,0.0,255.0,0.0
33.950000000000344,35.69646701660716,51.268289964851434,1319.9994005281478,-6.89858928240028e-05,-2.104821430748416e-05,0.0,-1.0842021724855044e-19,1.1368683772161603e-12,0.0,159.21526785714235,70.0,0.0,255.0,0.0
34.00000000000034,35.696463635536794,51.26828932871753,1319.999400826171,-6.898589288084622e-05,-2.104821419379732e-05,0.0,0.0,0.0,0.0,159.14285714285666,70.0,0.0,255.0,0.0
34.05000000000034,35.696460254895555,51.26828869247754,1319.9994011214003,-6.89858928240028e-05,-2.104821430748416e-05,0.0,1.0842021724855044e-19,-1.1368683772161603e-12,0.0,159.07044642857093,70.0,0.0,255.0,0.0
34.10000000000034,35.696456874683285,51.26828805613082,1319.9994014194235,-6.898589288084622e-05,-2.104821430748416e-05,0.0,-5.684341886080801e-13,0.0,0.0,158.9980357142852,70.0,0.0,255.0,0.0
34.15000000000035,35.696453494899885,51.26828741967672,1319.9994017146528,-6.898589288084622e-05,-2.104821430748416e-05,0.0,5.684340801878629e-13,0.0,0.0,158.9256249999995,70.0,0.0,255.0,0.0
34.200000000000344,35.69645011554528,51.26828678311453,1319.9994020080194,-6.89858928240028e-05,-2.104821430748416e-05,0.0,0.0,1.1368683772161603e-12,0.0,158.8532142857138,70.0,0.0,255.0,0.0
34.25000000000034,35.69644673661932,51.26828614644363,1319.9994023004547,-6.898589288084622e-05,-2.104821419379732e-05,0.0,1.0842021724855044e-19,0.0,0.0,158.78080357142807,70.0,0.0,255.0,0.0
34.300000000000345,35.696443358121904,51.26828550966335,1319.9994025919586,-6.89858928240028e-05,-2.104821430748416e-05,0.0,0.0,-1.1368683772161603e-12,0.0,158.70839285714237,70.0,0.0,255.0,0.0
34.35000000000035,35.69643998005291,51.268284872773,1319.9994028834626,-6.898589288084622e-05,-2.104821430748416e-05,0.0,-5.684342970282974e-13,1.1368683772161603e-12,0.0,158.63598214285665,70.0,0.0,255.0,0.0
34.40000000000035,35.69643660241225,51.26828423577194,1319.9994031721726,-6.898589288084622e-05,-2.104821419379732e-05,0.0,5.684341886080801e-13,0.0,0.0,158.56357142857092,70.0,0.0,255.0,0.0
34.450000000000344,35.69643322519979,51.268283598659494,1319.9994034627452,-6.89858928240028e-05,-2.104821430748416e-05,0.0,1.0842021724855044e-19,-1.1368683772161603e-12,0.0,158.49116071428523,70.0,0.0,255.0,0.0
34.50000000000035,35.696429848415406,51.268282961435006,1319.9994037514552,-6.898589288084622e-05,-2.104821430748416e-05,0.0,0.0,0.0,0.0,158.4187499999995,70.0,0.0,255.0,0.0
34.55000000000035,35.69642647205901,51.26828232409781,1319.9994040383026,-6.89858928240028e-05,-2.104821430748416e-05,0.0,-1.0842021724855044e-19,0.0,0.0,158.34633928571378,70.0,0.0,255.0,0.0
34.60000000000035,35.69642309613045,51.26828168664725,1319.9994043260813,-6.898589288084622e-05,-2.104821430748416e-05,0.0,-5.684341886080801e-13,1.1368683772161603e-12,0.0,158.27392857142806,70.0,0.0,255.0,0.0
34.65000000000035,35.69641972062965,51.26828104908263,1319.999404611066,-6.898589288084622e-05,-2.104821419379732e-05,0.0,5.684342970282974e-13,0.0,0.0,158.20151785714236,70.0,0.0,255.0,0.0
34.70000000000035,35.69641634555646,51.268280411403346,1319.9994048951194,-6.89858928240028e-05,-2.104821430748416e-05,0.0,0.0,-2.2737367544323206e-12,0.0,158.12910714285664,70.0,0.0,255.0,0.0
34.750000000000355,35.69641297091078,51.2682797736087,1319.999405180104,-6.898589288084622e-05,-2.1048214421170997e-05,0.0,-5.684342970282974e-13,1.1368683772161603e-12,0.0,158.05669642857092,70.0,0.0,255.0,0.0
34.80000000000035,35.696409596692476,51.268279135698016,1319.9994054613635,-6.898589288084622e-05,-2.104821419379732e-05,0.0,5.684341886080801e-13,2.2737367544323206e-12,0.0,157.9842857142852,70.0,0.0,255.0,0.0
34.85000000000035,35.69640622290143,51.268278497670664,1319.9994057435542,-6.89858928240028e-05,-2.104821419379732e-05,0.0,5.684342970282974e-13,-2.2737367544323206e-12,0.0,157.9118749999995,70.0,0.0,255.0,0.0
34.900000000000354,35.69640284953754,51.26827785952596,1319.9994060248137,-6.89858928240028e-05,-2.1048214421170997e-05,0.0,-1.1368683772161603e-12,-1.1368683772161603e-12,0.0,157.83946428571377,70.0,0.0,255.0,0.0
34.95000000000036,35.696399476600654,51.26827722126325,1319.999406306073,-6.898589293768964e-05,-2.104821430748416e-05,0.0,-1.0842021724855044e-19,2.2737367544323206e-12,0.0,157.76705357142805,70.0,0.0,255.0,0.0
35.000000000000355,35.696396104090674,51.26827658288188,1319.9994065836072,-6.89858928240028e-05,-2.104821419379732e-05,0.0,1.1368683772161603e-12,0.0,0.0,157.69464285714236,70.0,0.0,255.0,0.0
35.05000000000035,35.69639273200749,51.26827594438117,1319.9994068620726,-6.89858928240028e-05,-2.104821430748416e-05,0.0,1.0842021724855044e-19,-1.1368683772161603e-12,0.0,157.62223214285663,70.0,0.0,255.0,0.0
35.10000000000036,35.696389360350935,51.268275305760476,1319.9994071368128,-6.89858928240028e-05,-2.104821430748416e-05,0.0,0.0,0.0,0.0,157.5498214285709,70.0,0.0,255.0,0.0
35.15000000000036,35.69638598912091,51.268274667019135,1319.9994074134156,-6.89858928240028e-05,-2.104821430748416e-05,0.0,-1.1368684856363775e-12,0.0,0.0,157.47741071428518,70.0,0.0,255.0,0.0
35.20000000000036,35.6963826183173,51.26827402815648,1319.999407689087,-6.898589293768964e-05,-2.104821430748416e-05,0.0,0.0,1.1368683772161603e-12,0.0,157.4049999999995,70.0,0.0,255.0,0.0
35.250000000000355,35.696379247939966,51.26827338917186,1319.999407962896,-6.89858928240028e-05,-2.104821419379732e-05,0.0,1.1368684856363775e-12,-1.1368683772161603e-12,0.0,157.33258928571377,70.0,0.0,255.0,0.0
35.30000000000036,35.69637587798878,51.26827275006459,1319.9994082357734,-6.89858928240028e-05,-2.1048214421170997e-05,0.0,-1.1368683772161603e-12,-1.1368683772161603e-12,0.0,157.26017857142804,70.0,0.0,255.0,0.0
35.350000000000364,35.696372508463625,51.26827211083403,1319.9994085067883,-6.898589293768964e-05,-2.104821430748416e-05,0.0,-1.0842021724855044e-19,2.2737367544323206e-12,0.0,157.18776785714232,70.0,0.0,255.0,0.0
35.40000000000036,35.696369139364364,51.26827147147953,1319.9994087778032,-6.89858928240028e-05,-2.104821419379732e-05,0.0,1.1368683772161603e-12,0.0,0.0,157.11535714285662,70.0,0.0,255.0,0.0
35.45000000000036,35.69636577069089,51.26827083200041,1319.9994090469554,-6.89858928240028e-05,-2.104821430748416e-05,0.0,-5.684340801878629e-13,-1.1368683772161603e-12,0.0,157.04294642857093,70.0,0.0,255.0,0.0
35.50000000000036,35.69636240244304,51.268270192396024,1319.9994093161076,-6.898589288084622e-05,-2.104821430748416e-05,0.0,0.0,0.0,0.0,156.97053571428518,70.0,0.0,255.0,0.0
35.55000000000037,35.69635903462072,51.2682695526657,1319.9994095833972,-6.89858928240028e-05,-2.104821430748416e-05,0.0,-5.684342970282974e-13,0.0,0.0,156.89812499999948,70.0,0.0,255.0,0.0
35.600000000000364,35.69635566722376,51.268268912808786,1319.9994098497555,-6.898589293768964e-05,-2.104821430748416e-05,0.0,0.0,0.0,0.0,156.82571428571376,70.0,0.0,255.0,0.0
35.65000000000036,35.696352300252066,51.268268272824635,1319.9994101151824,-6.89858928240028e-05,-2.104821430748416e-05,0.0,1.1368684856363775e-12,0.0,0.0,156.75330357142803,70.0,0.0,255.0,0.0
35.700000000000365,35.69634893370549,51.268267632712565,1319.9994103806093,-6.89858928240028e-05,-2.104821430748416e-05,0.0,-1.1368683772161603e-12,0.0,0.0,156.68089285714234,70.0,0.0,255.0,0.0
35.75000000000037,35.696345567583904,51.268266992471936,1319.999410642311,-6.898589293768964e-05,-2.104821430748416e-05,0.0,-1.0842021724855044e-19,0.0,0.0,156.60848214285662,70.0,0.0,255.0,0.0
35.80000000000037,35.69634220188716,51.268266352102074,1319.9994109058753,-6.89858928240028e-05,-2.104821430748416e-05,0.0,1.1368683772161603e-12,1.1368683772161603e-12,0.0,156.5360714285709,70.0,0.0,255.0,0.0
35.850000000000364,35.69633883661517,51.26826571160234,1319.9994111666456,-6.89858928240028e-05,-2.104821419379732e-05,0.0,-5.684340801878629e-13,0.0,0.0,156.4636607142852,70.0,0.0,255.0,0.0
35.90000000000037,35.696335471767725,51.26826507097205,1319.999411427416,-6.898589288084622e-05,-2.104821430748416e-05,0.0,-5.684341886080801e-13,-1.1368683772161603e-12,0.0,156.39124999999947,70.0,0.0,255.0,0.0
35.95000000000037,35.696332107344766,51.26826443021058,1319.999411684461,-6.898589288084622e-05,-2.104821430748416e-05,0.0,5.684340801878629e-13,0.0,0.0,156.31883928571375,70.0,0.0,255.0,0.0
36.00000000000037,35.69632874334611,51.26826378931724,1319.9994119443,-6.89858928240028e-05,-2.104821430748416e-05,0.0,5.684341886080801e-13,0.0,0.0,156.24642857142805,70.0,0.0,255.0,0.0
36.05000000000037,35.696325379771636,51.26826314829139,1319.9994122004136,-6.89858928240028e-05,-2.104821430748416e-05,0.0,-5.684340801878629e-13,0.0,0.0,156.17401785714233,70.0,0.0,255.0,0.0
36.10000000000037,35.696322016621224,51.26826250713237,1319.999412455596,-6.898589288084622e-05,-2.104821430748416e-05,0.0,-5.684341886080801e-13,0.0,0.0,156.1016071428566,70.0,0.0,255.0,0.0
36.150000000000375,35.69631865389469,51.26826186583953,1319.999412709847,-6.898589288084622e-05,-2.104821430748416e-05,0.0,-1.0842021724855044e-19,0.0,0.0,156.02919642857088,70.0,0.0,255.0,0.0
36.20000000000037,35.69631529159193,51.268261224412186,1319.9994129650295,-6.898589288084622e-05,-2.104821430748416e-05,0.0,5.684341886080801e-13,0.0,0.0,155.95678571428516,70.0,0.0,255.0,0.0
36.25000000000037,35.6963119297128,51.26826058284973,1319.9994132155553,-6.89858928240028e-05,-2.104821430748416e-05,0.0,1.0842021724855044e-19,0.0,0.0,155.88437499999947,70.0,0.0,255.0,0.0
36.300000000000374,35.696308568257166,51.26825994115146,1319.999413468875,-6.898589288084622e-05,-2.104821430748416e-05,0.0,-5.684341886080801e-13,1.1368683772161603e-12,0.0,155.81196428571374,70.0,0.0,255.0,0.0
36.35000000000038,35.69630520722488,51.26825929931674,1319.9994137184694,-6.898589288084622e-05,-2.104821419379732e-05,0.0,5.684340801878629e-13,0.0,0.0,155.73955357142802,70.0,0.0,255.0,0.0
36.400000000000375,35.69630184661581,51.268258657344916,1319.99941396527,-6.89858928240028e-05,-2.104821430748416e-05,0.0,0.0,-1.1368683772161603e-12,0.0,155.66714285714232,70.0,0.0,255.0,0.0
36.45000000000037,35.69629848642979,51.268258015235325,1319.9994142148644,-6.898589288084622e-05,-2.104821430748416e-05,0.0,1.0842021724855044e-19,0.0,0.0,155.5947321428566,70.0,0.0,255.0,0.0
36.50000000000038,35.696295126666705,51.26825737298732,1319.9994144625962,-6.89858928240028e-05,-2.104821430748416e-05,0.0,0.0,0.0,0.0,155.52232142857088,70.0,0.0,255.0,0.0
36.55000000000038,35.6962917673264,51.268256730600235,1319.9994147066027,-6.898589288084622e-05,-2.104821430748416e-05,0.0,-1.0842021724855044e-19,0.0,0.0,155.44991071428518,70.0,0.0,255.0,0.0
36.60000000000038,35.69628840840872,51.26825608807342,1319.9994149515405,-6.89858928240028e-05,-2.104821430748416e-05,0.0,5.684341886080801e-13,0.0,0.0,155.37749999999946,70.0,0.0,255.0,0.0
36.650000000000375,35.696285049913556,51.26825544540623,1319.999415195547,-6.89858928240028e-05,-2.104821430748416e-05,0.0,-1.136868268795943e-12,0.0,0.0,155.30508928571373,70.0,0.0,255.0,0.0
36.70000000000038,35.69628169184074,51.268254802598,1319.999415434897,-6.898589293768964e-05,-2.104821430748416e-05,0.0,0.0,0.0,0.0,155.23267857142804,70.0,0.0,255.0,0.0
36.750000000000384,35.696278334190104,51.26825415964807,1319.9994156761095,-6.89858928240028e-05,-2.104821430748416e-05,0.0,5.684340801878629e-13,0.0,0.0,155.1602678571423,70.0,0.0,255.0,0.0
36.80000000000038,35.69627497696154,51.2682535165558,1319.9994159154594,-6.898589288084622e-05,-2.104821430748416e-05,0.0,-5.684341886080801e-13,0.0,0.0,155.0878571428566,70.0,0.0,255.0,0.0
36.85000000000038,35.69627162015488,51.268252873320534,1319.9994161557406,-6.898589288084622e-05,-2.104821430748416e-05,0.0,5.684342970282974e-13,1.1368683772161603e-12,0.0,155.0154464285709,70.0,0.0,255.0,0.0
36.90000000000038,35.69626826376997,51.2682522299416,1319.9994163932279,-6.89858928240028e-05,-2.104821419379732e-05,0.0,0.0,1.1368683772161603e-12,0.0,154.94303571428514,70.0,0.0,255.0,0.0
36.95000000000039,35.69626490780669,51.26825158641839,1319.9994166288525,-6.898589288084622e-05,-2.104821419379732e-05,0.0,-1.0842021724855044e-19,-2.2737367544323206e-12,0.0,154.87062499999945,70.0,0.0,255.0,0.0
37.000000000000384,35.69626155226488,51.268250942750186,1319.9994168616831,-6.89858928240028e-05,-2.1048214421170997e-05,0.0,5.684341886080801e-13,-1.1368683772161603e-12,0.0,154.79821428571373,70.0,0.0,255.0,0.0
37.05000000000038,35.69625819714437,51.26825029893639,1319.9994170973077,-6.89858928240028e-05,-2.104821430748416e-05,0.0,-1.136868268795943e-12,1.1368683772161603e-12,0.0,154.72580357142803,70.0,0.0,255.0,0.0
37.100000000000385,35.69625484244503,51.26824965497632,1319.9994173282757,-6.898589293768964e-05,-2.104821430748416e-05,0.0,0.0,0.0,0.0,154.6533928571423,70.0,0.0,255.0,0.0
37.15000000000039,35.696251488166695,51.26824901086933,1319.9994175611064,-6.89858928240028e-05,-2.104821430748416e-05,0.0,1.136868268795943e-12,0.0,0.0,154.58098214285658,70.0,0.0,255.0,0.0
37.20000000000039,35.69624813430923,51.26824836661478,1319.9994177892804,-6.89858928240028e-05,-2.104821430748416e-05,0.0,-1.1368683772161603e-12,0.0,0.0,154.50857142857086,70.0,0.0,255.0,0.0
37.250000000000384,35.69624478087246,51.268247722212,1319.9994180183858,-6.898589293768964e-05,-2.104821430748416e-05,0.0,1.0842021724855044e-19,0.0,0.0,154.43616071428517,70.0,0.0,255.0,0.0
37.30000000000039,35.69624142785624,51.26824707766035,1319.9994182456285,-6.89858928240028e-05,-2.104821430748416e-05,0.0,1.1368683772161603e-12,0.0,0.0,154.36374999999944,70.0,0.0,255.0,0.0
37.35000000000039,35.69623807526046,51.268246432959174,1319.9994184710085,-6.89858928240028e-05,-2.104821430748416e-05,0.0,-1.1368684856363775e-12,0.0,0.0,154.29133928571372,70.0,0.0,255.0,0.0
37.40000000000039,35.6962347230849,51.26824578810782,1319.99941869732,-6.898589293768964e-05,-2.104821430748416e-05,0.0,0.0,0.0,0.0,154.21892857142802,70.0,0.0,255.0,0.0
37.45000000000039,35.69623137132943,51.26824514310563,1319.9994189208373,-6.89858928240028e-05,-2.104821430748416e-05,0.0,1.1368684856363775e-12,1.1368683772161603e-12,0.0,154.1465178571423,70.0,0.0,255.0,0.0
37.50000000000039,35.696228019993896,51.26824449795198,1319.9994191424921,-6.89858928240028e-05,-2.104821419379732e-05,0.0,-5.684341886080801e-13,1.1368683772161603e-12,0.0,154.07410714285658,70.0,0.0,255.0,0.0
37.550000000000395,35.69622466907816,51.2682438526462,1319.9994193632156,-6.898589288084622e-05,-2.104821419379732e-05,0.0,-1.0842021724855044e-19,-1.1368683772161603e-12,0.0,154.00169642857085,70.0,0.0,255.0,0.0
37.60000000000039,35.696221318582026,51.26824320718764,1319.9994195830077,-6.89858928240028e-05,-2.104821430748416e-05,0.0,0.0,-1.1368683772161603e-12,0.0,153.92928571428516,70.0,0.0,255.0,0.0
37.65000000000039,35.696217968505366,51.26824256157566,1319.9994198009372,-6.898589288084622e-05,-2.104821430748416e-05,0.0,-5.684340801878629e-13,0.0,0.0,153.85687499999943,70.0,0.0,255.0,0.0
37.700000000000394,35.69621461884802,51.26824191580958,1319.9994200179353,-6.898589288084622e-05,-2.104821430748416e-05,0.0,5.684341886080801e-13,0.0,0.0,153.7844642857137,70.0,0.0,255.0,0.0
37.7500000000004,35.696211269609805,51.26824126988879,1319.9994202340022,-6.89858928240028e-05,-2.104821430748416e-05,0.0,-5.684342970282974e-13,0.0,0.0,153.712053571428,70.0,0.0,255.0,0.0
37.800000000000395,35.696207920790584,51.268240623812616,1319.999420450069,-6.898589293768964e-05,-2.104821430748416e-05,0.0,0.0,0.0,0.0,153.6396428571423,70.0,0.0,255.0,0.0
37.85000000000039,35.69620457239019,51.268239977580414,1319.9994206624106,-6.89858928240028e-05,-2.104821430748416e-05,0.0,1.1368684856363775e-12,1.1368683772161603e-12,0.0,153.56723214285657,70.0,0.0,255.0,0.0
37.9000000000004,35.69620122440846,51.26823933119154,1319.999420874752,-6.89858928240028e-05,-2.104821419379732e-05,0.0,-1.1368683772161603e-12,0.0,0.0,153.49482142857084,70.0,0.0,255.0,0.0
37.9500000000004,35.69619787684523,51.268238684645354,1319.9994210833684,-6.898589293768964e-05,-2.104821430748416e-05,0.0,-1.0842021724855044e-19,-2.2737367544323206e-12,0.0,153.42241071428515,70.0,0.0,255.0,0.0
38.0000000000004,35.69619452970035,51.26823803794118,1319.999421292916,-6.89858928240028e-05,-2.1048214421170997e-05,0.0,1.1368683772161603e-12,1.1368683772161603e-12,0.0,153.34999999999943,70.0,0.0,255.0,0.0
38.050000000000395,35.69619118297366,51.26823739107839,1319.9994215006009,-6.89858928240028e-05,-2.104821419379732e-05,0.0,1.0842021724855044e-19,2.2737367544323206e-12,0.0,153.2775892857137,70.0,0.0,255.0,0.0
38.1000000000004,35.696187836664954,51.26823674405634,1319.9994217110798,-6.89858928240028e-05,-2.104821419379732e-05,0.0,-5.684341886080801e-13,-1.1368683772161603e-12,0.0,153.205178571428,70.0,0.0,255.0,0.0
38.150000000000404,35.69618449077414,51.268236096874375,1319.999421914108,-6.898589288084622e-05,-2.104821430748416e-05,0.0,-5.684342970282974e-13,-1.1368683772161603e-12,0.0,153.13276785714228,70.0,0.0,255.0,0.0
38.2000000000004,35.69618114530096,51.268235449531836,1319.999422118999,-6.898589288084622e-05,-2.104821430748416e-05,0.0,5.684341886080801e-13,0.0,0.0,153.06035714285656,70.0,0.0,255.0,0.0
38.2500000000004,35.69617780024532,51.26823480202811,1319.999422321096,-6.89858928240028e-05,-2.104821430748416e-05,0.0,1.0842021724855044e-19,0.0,0.0,152.98794642857087,70.0,0.0,255.0,0.0
38.3000000000004,35.69617445560706,51.26823415436252,1319.9994225213304,-6.898589288084622e-05,-2.104821430748416e-05,0.0,-5.684341886080801e-13,0.0,0.0,152.91553571428514,70.0,0.0,255.0,0.0
38.350000000000406,35.69617111138596,51.268233506534415,1319.9994227215648,-6.898589288084622e-05,-2.104821430748416e-05,0.0,-1.0842021724855044e-19,0.0,0.0,152.84312499999942,70.0,0.0,255.0,0.0
38.400000000000404,35.69616776758186,51.268232858543186,1319.9994229199365,-6.898589288084622e-05,-2.104821430748416e-05,0.0,5.684341886080801e-13,1.1368683772161603e-12,0.0,152.7707142857137,70.0,0.0,255.0,0.0
38.4500000000004,35.69616442419465,51.26823221038814,1319.9994231183082,-6.89858928240028e-05,-2.104821419379732e-05,0.0,5.684342970282974e-13,1.1368683772161603e-12,0.0,152.698303571428,70.0,0.0,255.0,0.0
38.500000000000405,35.6961610812241,51.268231562068664,1319.9994233129546,-6.89858928240028e-05,-2.104821419379732e-05,0.0,-5.684341886080801e-13,-2.2737367544323206e-12,0.0,152.62589285714228,70.0,0.0,255.0,0.0
38.55000000000041,35.696157738670045,51.26823091358411,1319.9994235085323,-6.898589288084622e-05,-2.1048214421170997e-05,0.0,-5.684342970282974e-13,-1.1368683772161603e-12,0.0,152.55348214285655,70.0,0.0,255.0,0.0
38.600000000000406,35.69615439653235,51.26823026493382,1319.9994237003848,-6.898589288084622e-05,-2.104821430748416e-05,0.0,5.684341886080801e-13,2.2737367544323206e-12,0.0,152.48107142857083,70.0,0.0,255.0,0.0
38.650000000000404,35.696151054810805,51.268229616117154,1319.9994238931686,-6.89858928240028e-05,-2.104821419379732e-05,0.0,5.684342970282974e-13,0.0,0.0,152.40866071428513,70.0,0.0,255.0,0.0
38.70000000000041,35.696147713505276,51.26822896713346,1319.999424082227,-6.89858928240028e-05,-2.104821430748416e-05,0.0,-1.1368683772161603e-12,-1.1368683772161603e-12,0.0,152.3362499999994,70.0,0.0,255.0,0.0
38.75000000000041,35.69614437261557,51.26822831798212,1319.9994242703542,-6.898589293768964e-05,-2.104821430748416e-05,0.0,-1.0842021724855044e-19,0.0,0.0,152.2638392857137,70.0,0.0,255.0,0.0
38.80000000000041,35.696141032141504,51.26822766866246,1319.99942445755,-6.89858928240028e-05,-2.104821430748416e-05,0.0,1.1368683772161603e-12,0.0,0.0,152.191428571428,70.0,0.0,255.0,0.0
38.850000000000406,35.69613769208291,51.26822701917386,1319.9994246456772,-6.89858928240028e-05,-2.104821430748416e-05,0.0,-1.136868268795943e-12,1.1368683772161603e-12,0.0,152.11901785714227,70.0,0.0,255.0,0.0
38.90000000000041,35.696134352439636,51.268226369515645,1319.999424830079,-6.898589293768964e-05,-2.104821419379732e-05,0.0,0.0,0.0,0.0,152.04660714285654,70.0,0.0,255.0,0.0
38.950000000000415,35.696131013211485,51.268225719687216,1319.9994250135496,-6.89858928240028e-05,-2.104821430748416e-05,0.0,5.684340801878629e-13,-1.1368683772161603e-12,0.0,151.97419642857082,70.0,0.0,255.0,0.0
39.00000000000041,35.69612767439829,51.26822506968788,1319.9994251932949,-6.898589288084622e-05,-2.104821430748416e-05,0.0,0.0,1.1368683772161603e-12,0.0,151.90178571428513,70.0,0.0,255.0,0.0
39.05000000000041,35.696124335999855,51.26822441951703,1319.9994253749028,-6.89858928240028e-05,-2.104821419379732e-05,0.0,5.684342970282974e-13,1.1368683772161603e-12,0.0,151.8293749999994,70.0,0.0,255.0,0.0
39.10000000000041,35.696120998016035,51.26822376917402,1319.9994255537167,-6.89858928240028e-05,-2.104821419379732e-05,0.0,-1.1368683772161603e-12,-2.2737367544323206e-12,0.0,151.75696428571368,70.0,0.0,255.0,0.0
39.15000000000042,35.696117660446625,51.26822311865819,1319.999425730668,-6.898589293768964e-05,-2.1048214421170997e-05,0.0,-1.0842021724855044e-19,-1.1368683772161603e-12,0.0,151.68455357142795,70.0,0.0,255.0,0.0
39.200000000000415,35.69611432329145,51.26822246796892,1319.9994259057567,-6.89858928240028e-05,-2.104821430748416e-05,0.0,1.1368683772161603e-12,2.2737367544323206e-12,0.0,151.61214285714226,70.0,0.0,255.0,0.0
39.25000000000041,35.69611098655035,51.268221817105555,1319.9994260808453,-6.89858928240028e-05,-2.104821419379732e-05,0.0,-1.136868268795943e-12,0.0,0.0,151.53973214285654,70.0,0.0,255.0,0.0
39.300000000000416,35.69610765022313,51.268221166067455,1319.99942625314,-6.898589293768964e-05,-2.104821430748416e-05,0.0,0.0,-1.1368683772161603e-12,0.0,151.4673214285708,70.0,0.0,255.0,0.0
39.35000000000042,35.69610431430961,51.26822051485398,1319.999426426366,-6.89858928240028e-05,-2.104821430748416e-05,0.0,1.136868268795943e-12,0.0,0.0,151.39491071428512,70.0,0.0,255.0,0.0
39.40000000000042,35.69610097880961,51.26821986346449,1319.999426596798,-6.89858928240028e-05,-2.104821430748416e-05,0.0,0.0,1.1368683772161603e-12,0.0,151.3224999999994,70.0,0.0,255.0,0.0
39.450000000000415,35.69609764372296,51.268219211898334,1319.9994267635047,-6.89858928240028e-05,-2.104821419379732e-05,0.0,1.0842021724855044e-19,1.1368683772161603e-12,0.0,151.25008928571367,70.0,0.0,255.0,0.0
39.50000000000042,35.696094309049464,51.2682185601549,1319.9994269311428,-6.89858928240028e-05,-2.104821419379732e-05,0.0,-1.1368683772161603e-12,-2.2737367544323206e-12,0.0,151.17767857142798,70.0,0.0,255.0,0.0
39.55000000000042,35.69609097478893,51.26821790823352,1319.9994270978495,-6.898589293768964e-05,-2.1048214421170997e-05,0.0,-1.0842021724855044e-19,0.0,0.0,151.10526785714225,70.0,0.0,255.0,0.0
39.60000000000042,35.6960876409412,51.26821725613355,1319.999427260831,-6.89858928240028e-05,-2.104821419379732e-05,0.0,1.1368683772161603e-12,2.2737367544323206e-12,0.0,151.03285714285653,70.0,0.0,255.0,0.0
39.65000000000042,35.69608430750607,51.268216603854384,1319.9994274238124,-6.89858928240028e-05,-2.104821419379732e-05,0.0,-5.684340801878629e-13,-1.1368683772161603e-12,0.0,150.96044642857083,70.0,0.0,255.0,0.0
39.70000000000042,35.696080974483365,51.26821595139536,1319.9994275858626,-6.898589288084622e-05,-2.104821430748416e-05,0.0,-5.684341886080801e-13,-1.1368683772161603e-12,0.0,150.8880357142851,70.0,0.0,255.0,0.0
39.750000000000426,35.6960776418729,51.26821529875584,1319.9994277441874,-6.898589288084622e-05,-2.104821430748416e-05,0.0,5.684340801878629e-13,0.0,0.0,150.8156249999994,70.0,0.0,255.0,0.0
39.80000000000042,35.696074309674465,51.26821464593519,1319.9994279006496,-6.89858928240028e-05,-2.104821430748416e-05,0.0,0.0,0.0,0.0,150.74321428571366,70.0,0.0,255.0,0.0
39.85000000000042,35.696070977887906,51.268213992932765,1319.9994280580431,-6.898589288084622e-05,-2.104821430748416e-05,0.0,-5.684340801878629e-13,0.0,0.0,150.67080357142797,70.0,0.0,255.0,0.0
39.900000000000425,35.69606764651302,51.26821333974794,1319.9994282126427,-6.898589288084622e-05,-2.104821430748416e-05,0.0,5.684341886080801e-13,0.0,0.0,150.59839285714224,70.0,0.0,255.0,0.0
39.95000000000043,35.69606431554963,51.26821268638006,1319.9994283672422,-6.89858928240028e-05,-2.104821430748416e-05,0.0,-1.0842021724855044e-19,0.0,0.0,150.52598214285652,70.0,0.0,255.0,0.0
40.000000000000426,35.696060984997516,51.2682120328285,1319.9994285199791,-6.898589288084622e-05,-2.104821430748416e-05,0.0,0.0,1.1368683772161603e-12,0.0,150.4535714285708,70.0,0.0,255.0,0.0
40.05000000000042,35.696057654856524,51.26821137909263,1319.9994286689907,-6.89858928240028e-05,-2.104821419379732e-05,0.0,1.0842021724855044e-19,1.1368683772161603e-12,0.0,150.3811607142851,70.0,0.0,255.0,0.0
40.10000000000043,35.69605432512645,51.26821072517179,1319.9994288180023,-6.898589288084622e-05,-2.104821419379732e-05,0.0,-5.684341886080801e-13,-1.1368683772161603e-12,0.0,150.30874999999938,70.0,0.0,255.0,0.0
40.15000000000043,35.6960509958071,51.26821007106537,1319.99942896422,-6.898589288084622e-05,-2.104821430748416e-05,0.0,5.684340801878629e-13,0.0,0.0,150.23633928571365,70.0,0.0,255.0,0.0
40.20000000000043,35.69604766689828,51.26820941677272,1319.999429111369,-6.89858928240028e-05,-2.104821419379732e-05,0.0,0.0,0.0,0.0,150.16392857142796,70.0,0.0,255.0,0.0
40.250000000000426,35.696044338399794,51.26820876229319,1319.9994292566553,-6.898589288084622e-05,-2.104821430748416e-05,0.0,1.0842021724855044e-19,-1.1368683772161603e-12,0.0,150.09151785714224,70.0,0.0,255.0,0.0
40.30000000000043,35.696041010311475,51.26820810762618,1319.9994293991476,-6.89858928240028e-05,-2.104821430748416e-05,0.0,0.0,0.0,0.0,150.0191071428565,70.0,0.0,255.0,0.0
40.350000000000435,35.696037682633104,51.268207452771016,1319.9994295379147,-6.898589288084622e-05,-2.104821430748416e-05,0.0,-5.684342970282974e-13,0.0,0.0,149.9466964285708,70.0,0.0,255.0,0.0
40.40000000000043,35.69603435536449,51.26820679772708,1319.9994296785444,-6.898589288084622e-05,-2.104821430748416e-05,0.0,5.684341886080801e-13,1.1368683772161603e-12,0.0,149.8742857142851,70.0,0.0,255.0,0.0
40.45000000000043,35.69603102850544,51.26820614249375,1319.9994298163801,-6.89858928240028e-05,-2.104821419379732e-05,0.0,1.0842021724855044e-19,0.0,0.0,149.80187499999937,70.0,0.0,255.0,0.0
40.50000000000043,35.69602770205577,51.268205487070375,1319.9994299532846,-6.898589288084622e-05,-2.104821430748416e-05,0.0,0.0,-2.2737367544323206e-12,0.0,149.72946428571368,70.0,0.0,255.0,0.0
